thisN,thisTrialN,thisRepN,mouse.x,mouse.y,mouse.leftButton,mouse.midButton,mouse.rightButton,mouse.time,mouse.clicked_name,trials.thisRepN,trials.thisTrialN,trials.thisN,trials.thisIndex,thisRow.t,notes,num_distr,trial.started,fixtion.started,target.started,mouse.started,trial.stopped,trials.mouse.x,trials.mouse.y,trials.mouse.leftButton,trials.mouse.midButton,trials.mouse.rightButton,trials.mouse.time,trials.mouse.clicked_name,participant,session,date,expName,psychopyVersion,frameRate,expStart,
0,0,0,[0.004629629629629629],[0.2037037037037037],[1],[0],[0],[2.002770099992631],['target'],0,0,0,0,0.09451769999577664,,5,0.0571265000035055,0.09451769999577664,0.09451769999577664,0.056774500000756234,2.0605472000024747,[0.004629629629629629],[0.2037037037037037],[1],[0],[0],[2.002770099992631],['target'],777365,001,2024-10-10_13h19.09.791,visual search,2024.2.1post4,59.98296484094683,2024-10-10 13h19.22.096664 +0530,
1,0,1,[-0.42685185185185187],[0.42407407407407405],[1],[0],[0],[3.0041231000068365],['target'],1,0,1,0,2.1041385999997146,,5,2.0847897000057856,2.1041385999997146,2.1041385999997146,0.023896999991848134,5.089368500004639,[-0.42685185185185187],[0.42407407407407405],[1],[0],[0],[3.0041231000068365],['target'],777365,001,2024-10-10_13h19.09.791,visual search,2024.2.1post4,59.98296484094683,2024-10-10 13h19.22.096664 +0530,
2,0,2,[-0.42685185185185187],[0.42407407407407405],[1],[0],[0],[0.2700345999910496],[None],2,0,2,0,5.154162599996198,,10,5.127819100001943,5.154162599996198,5.154162599996198,0.03824329999042675,5.398528499994427,[-0.42685185185185187],[0.42407407407407405],[1],[0],[0],[0.2700345999910496],[None],777365,001,2024-10-10_13h19.09.791,visual search,2024.2.1post4,59.98296484094683,2024-10-10 13h19.22.096664 +0530,
3,0,3,[0.037037037037037035],[0.375],[1],[0],[0],[1.815617399988696],['target'],3,0,3,0,5.460886100001517,,10,5.441798500003642,5.460886100001517,5.460886100001517,0.04286159999901429,7.258209999999963,[0.037037037037037035],[0.375],[1],[0],[0],[1.815617399988696],['target'],777365,001,2024-10-10_13h19.09.791,visual search,2024.2.1post4,59.98296484094683,2024-10-10 13h19.22.096664 +0530,
4,0,4,[0.39351851851851855],[0.14444444444444443],[1],[0],[0],[2.3000010999967344],['target'],4,0,4,0,7.322080600002664,,5,7.290527399993152,7.322080600002664,7.322080600002664,0.0319110999989789,9.59119869999995,[0.39351851851851855],[0.14444444444444443],[1],[0],[0],[2.3000010999967344],['target'],777365,001,2024-10-10_13h19.09.791,visual search,2024.2.1post4,59.98296484094683,2024-10-10 13h19.22.096664 +0530,
5,0,5,[-0.018518518518518517],[0.32592592592592595],[1],[0],[0],[1.8908642000023974],['target'],5,0,5,0,9.63796170000569,,5,9.615136899999925,9.63796170000569,9.63796170000569,0.023604600006365217,11.506663799998933,[-0.018518518518518517],[0.32592592592592595],[1],[0],[0],[1.8908642000023974],['target'],777365,001,2024-10-10_13h19.09.791,visual search,2024.2.1post4,59.98296484094683,2024-10-10 13h19.22.096664 +0530,
6,0,6,[0.2861111111111111],[-0.17407407407407408],[1],[0],[0],[2.6737565999937942],['target'],6,0,6,0,11.588039399997797,,10,11.565828999999212,11.588039399997797,11.588039399997797,0.058830100009799935,14.240148299999419,[0.2861111111111111],[-0.17407407407407408],[1],[0],[0],[2.6737565999937942],['target'],777365,001,2024-10-10_13h19.09.791,visual search,2024.2.1post4,59.98296484094683,2024-10-10 13h19.22.096664 +0530,
7,0,7,[-0.2462962962962963],[0.4083333333333333],[1],[0],[0],[1.8875037999969209],['target'],7,0,7,0,14.287923700001556,,5,14.260968599992339,14.287923700001556,14.287923700001556,0.020565099999657832,16.149034599991865,[-0.2462962962962963],[0.4083333333333333],[1],[0],[0],[1.8875037999969209],['target'],777365,001,2024-10-10_13h19.09.791,visual search,2024.2.1post4,59.98296484094683,2024-10-10 13h19.22.096664 +0530,
8,0,8,[0.1685185185185185],[0.22962962962962963],[1],[0],[0],[1.6504640999919502],['target'],8,0,8,0,16.190195400005905,,5,16.17341000000306,16.190195400005905,16.190195400005905,0.024033800000324845,17.82461749999493,[0.1685185185185185],[0.22962962962962963],[1],[0],[0],[1.6504640999919502],['target'],777365,001,2024-10-10_13h19.09.791,visual search,2024.2.1post4,59.98296484094683,2024-10-10 13h19.22.096664 +0530,
9,0,9,[-0.27037037037037037],[-0.425],[1],[0],[0],[2.749209300003713],['target'],9,0,9,0,17.88834659999702,,5,17.858084099992993,17.88834659999702,17.88834659999702,0.03315499999735039,20.60794590000296,[-0.27037037037037037],[-0.425],[1],[0],[0],[2.749209300003713],['target'],777365,001,2024-10-10_13h19.09.791,visual search,2024.2.1post4,59.98296484094683,2024-10-10 13h19.22.096664 +0530,
10,0,10,[0.3574074074074074],[-0.06944444444444445],[1],[0],[0],[2.6179244999948423],['target'],10,0,10,0,20.688992299998063,,10,20.65687849999813,20.688992299998063,20.688992299998063,0.04862149999826215,23.275342599998112,[0.3574074074074074],[-0.06944444444444445],[1],[0],[0],[2.6179244999948423],['target'],777365,001,2024-10-10_13h19.09.791,visual search,2024.2.1post4,59.98296484094683,2024-10-10 13h19.22.096664 +0530,
11,0,11,[-0.34814814814814815],[0.44351851851851853],[1],[0],[0],[2.377696900002775],['target'],11,0,11,0,23.355017699999735,,10,23.321171000003233,23.355017699999735,23.355017699999735,0.04546639999898616,25.699261999994633,[-0.34814814814814815],[0.44351851851851853],[1],[0],[0],[2.377696900002775],['target'],777365,001,2024-10-10_13h19.09.791,visual search,2024.2.1post4,59.98296484094683,2024-10-10 13h19.22.096664 +0530,
12,0,12,[-0.12314814814814815],[0.46574074074074073],[1],[0],[0],[1.4907909000030486],['target'],12,0,12,0,25.738481699998374,,5,25.7164863999933,25.738481699998374,25.738481699998374,0.017022799991536885,27.20780079999531,[-0.12314814814814815],[0.46574074074074073],[1],[0],[0],[1.4907909000030486],['target'],777365,001,2024-10-10_13h19.09.791,visual search,2024.2.1post4,59.98296484094683,2024-10-10 13h19.22.096664 +0530,
13,0,13,[-0.34814814814814815],[-0.27037037037037037],[1],[0],[0],[3.579399599999306],['target'],13,0,13,0,27.292705400002887,,10,27.2617387999926,27.292705400002887,27.292705400002887,0.05368369999632705,30.841761100004078,[-0.34814814814814815],[-0.27037037037037037],[1],[0],[0],[3.579399599999306],['target'],777365,001,2024-10-10_13h19.09.791,visual search,2024.2.1post4,59.98296484094683,2024-10-10 13h19.22.096664 +0530,
14,0,14,[0.1111111111111111],[-0.24259259259259258],[1],[0],[0],[1.8290058999991743],['target'],14,0,14,0,30.961065299998154,,10,30.921881599992048,30.961065299998154,30.961065299998154,0.07979200000409037,32.75154789999942,[0.1111111111111111],[-0.24259259259259258],[1],[0],[0],[1.8290058999991743],['target'],777365,001,2024-10-10_13h19.09.791,visual search,2024.2.1post4,59.98296484094683,2024-10-10 13h19.22.096664 +0530,
15,0,15,[0.12962962962962962],[-0.3990740740740741],[1],[0],[0],[2.7901027999905637],['target'],15,0,15,0,32.80676289999974,,5,32.78367409999191,32.80676289999974,32.80676289999974,0.031749400004628114,35.57419790000131,[0.12962962962962962],[-0.3990740740740741],[1],[0],[0],[2.7901027999905637],['target'],777365,001,2024-10-10_13h19.09.791,visual search,2024.2.1post4,59.98296484094683,2024-10-10 13h19.22.096664 +0530,
16,0,16,[0.10185185185185185],[0.3194444444444444],[1],[0],[0],[2.1788743999932194],['target'],16,0,16,0,35.612879899999825,,5,35.59515660000034,35.612879899999825,35.612879899999825,0.020786599998245947,37.77448789999471,[0.10185185185185185],[0.3194444444444444],[1],[0],[0],[2.1788743999932194],['target'],777365,001,2024-10-10_13h19.09.791,visual search,2024.2.1post4,59.98296484094683,2024-10-10 13h19.22.096664 +0530,
17,0,17,[0.05185185185185185],[0.1388888888888889],[1],[0],[0],[2.751402699999744],['target'],17,0,17,0,37.80578460000106,,5,37.79007800000545,37.80578460000106,37.80578460000106,0.015305199995054863,40.54217620000418,[0.05185185185185185],[0.1388888888888889],[1],[0],[0],[2.751402699999744],['target'],777365,001,2024-10-10_13h19.09.791,visual search,2024.2.1post4,59.98296484094683,2024-10-10 13h19.22.096664 +0530,
18,0,18,[0.4787037037037037],[-0.21296296296296297],[1],[0],[0],[3.097196900009294],['target'],18,0,18,0,40.60572130000219,,10,40.57884570000169,40.60572130000219,40.60572130000219,0.036343600004329346,43.67669249999744,[0.4787037037037037],[-0.21296296296296297],[1],[0],[0],[3.097196900009294],['target'],777365,001,2024-10-10_13h19.09.791,visual search,2024.2.1post4,59.98296484094683,2024-10-10 13h19.22.096664 +0530,
19,0,19,[0.3138888888888889],[0.31574074074074077],[1],[0],[0],[3.045369400002528],['target'],19,0,19,0,43.74781780000194,,10,43.72911650000606,43.74781780000194,43.74781780000194,0.05202280000958126,46.775040499996976,[0.3138888888888889],[0.31574074074074077],[1],[0],[0],[3.045369400002528],['target'],777365,001,2024-10-10_13h19.09.791,visual search,2024.2.1post4,59.98296484094683,2024-10-10 13h19.22.096664 +0530,
20,0,20,[-0.16574074074074074],[0.31203703703703706],[1],[0],[0],[3.9825819000107003],['target'],20,0,20,0,46.873087200001464,,10,46.834110900003,46.873087200001464,46.873087200001464,0.05882059999566991,50.81730369999423,[-0.16574074074074074],[0.31203703703703706],[1],[0],[0],[3.9825819000107003],['target'],777365,001,2024-10-10_13h19.09.791,visual search,2024.2.1post4,59.98296484094683,2024-10-10 13h19.22.096664 +0530,
21,0,21,[0.3675925925925926],[-0.1824074074074074],[1],[0],[0],[2.623591800002032],['target'],21,0,21,0,50.85618319999776,,5,50.83589099999517,50.85618319999776,50.85618319999776,0.01825569999346044,53.46020499999577,[0.3675925925925926],[-0.1824074074074074],[1],[0],[0],[2.623591800002032],['target'],777365,001,2024-10-10_13h19.09.791,visual search,2024.2.1post4,59.98296484094683,2024-10-10 13h19.22.096664 +0530,
22,0,22,[0.33055555555555555],[-0.11296296296296296],[1],[0],[0],[1.6299788000033004],['target'],22,0,22,0,53.53972679999424,,10,53.51294499999494,53.53972679999424,53.53972679999424,0.05241730000125244,55.14358039999206,[0.33055555555555555],[-0.11296296296296296],[1],[0],[0],[1.6299788000033004],['target'],777365,001,2024-10-10_13h19.09.791,visual search,2024.2.1post4,59.98296484094683,2024-10-10 13h19.22.096664 +0530,
23,0,23,[-0.41574074074074074],[0.19537037037037036],[1],[0],[0],[2.368315200001234],['target'],23,0,23,0,55.194596899993485,,5,55.174187900003744,55.194596899993485,55.194596899993485,0.030278499994892627,57.54314730000624,[-0.41574074074074074],[0.19537037037037036],[1],[0],[0],[2.368315200001234],['target'],777365,001,2024-10-10_13h19.09.791,visual search,2024.2.1post4,59.98296484094683,2024-10-10 13h19.22.096664 +0530,
24,0,24,[0.23425925925925925],[0.037037037037037035],[1],[0],[0],[3.620786200001021],['target'],24,0,24,0,57.62962289999996,,10,57.605245300001116,57.62962289999996,57.62962289999996,0.06178399999043904,61.22670850000577,[0.23425925925925925],[0.037037037037037035],[1],[0],[0],[3.620786200001021],['target'],777365,001,2024-10-10_13h19.09.791,visual search,2024.2.1post4,59.98296484094683,2024-10-10 13h19.22.096664 +0530,
25,0,25,[-0.38981481481481484],[-0.387037037037037],[1],[0],[0],[5.834319300003699],['target'],25,0,25,0,61.2807482000062,,5,61.25877390000096,61.2807482000062,61.2807482000062,0.03169039999193046,67.09380800000508,[-0.38981481481481484],[-0.387037037037037],[1],[0],[0],[5.834319300003699],['target'],777365,001,2024-10-10_13h19.09.791,visual search,2024.2.1post4,59.98296484094683,2024-10-10 13h19.22.096664 +0530,
26,0,26,[-0.175],[0.28703703703703703],[1],[0],[0],[4.1797189000062644],['target'],26,0,26,0,67.15690259999246,,10,67.13019969999732,67.15690259999246,67.15690259999246,0.035951800004113466,71.3105632999941,[-0.175],[0.28703703703703703],[1],[0],[0],[4.1797189000062644],['target'],777365,001,2024-10-10_13h19.09.791,visual search,2024.2.1post4,59.98296484094683,2024-10-10 13h19.22.096664 +0530,
27,0,27,[0.24259259259259258],[-0.42592592592592593],[1],[0],[0],[2.733913800009759],['target'],27,0,27,0,71.36462930000562,,5,71.34176640000078,71.36462930000562,71.36462930000562,0.030829499999526888,74.07631609999225,[0.24259259259259258],[-0.42592592592592593],[1],[0],[0],[2.733913800009759],['target'],777365,001,2024-10-10_13h19.09.791,visual search,2024.2.1post4,59.98296484094683,2024-10-10 13h19.22.096664 +0530,
28,0,28,[0.016666666666666666],[-0.3],[1],[0],[0],[2.462161199990078],['target'],28,0,28,0,74.18174420000287,,10,74.14869139999792,74.18174420000287,74.18174420000287,0.07208779999928083,76.61152999999467,[0.016666666666666666],[-0.3],[1],[0],[0],[2.462161199990078],['target'],777365,001,2024-10-10_13h19.09.791,visual search,2024.2.1post4,59.98296484094683,2024-10-10 13h19.22.096664 +0530,
29,0,29,[-0.14074074074074075],[-0.15555555555555556],[1],[0],[0],[2.03405100000964],['target'],29,0,29,0,76.67421769999783,,5,76.64272659999551,76.67421769999783,76.67421769999783,0.03082860000722576,78.67741010000464,[-0.14074074074074075],[-0.15555555555555556],[1],[0],[0],[2.03405100000964],['target'],777365,001,2024-10-10_13h19.09.791,visual search,2024.2.1post4,59.98296484094683,2024-10-10 13h19.22.096664 +0530,
30,0,30,[-0.08796296296296297],[0.39444444444444443],[1],[0],[0],[2.604039700003341],['target'],30,0,30,0,78.72422910000023,,5,78.70497340000293,78.72422910000023,78.72422910000023,0.027232200009166263,81.30975739999849,[-0.08796296296296297],[0.39444444444444443],[1],[0],[0],[2.604039700003341],['target'],777365,001,2024-10-10_13h19.09.791,visual search,2024.2.1post4,59.98296484094683,2024-10-10 13h19.22.096664 +0530,
31,0,31,[0.14629629629629629],[0.3962962962962963],[1],[0],[0],[1.800300300004892],['target'],31,0,31,0,81.36472969999886,,5,81.34221410000464,81.36472969999886,81.36472969999886,0.032154000000446104,83.14317640000081,[0.14629629629629629],[0.3962962962962963],[1],[0],[0],[1.800300300004892],['target'],777365,001,2024-10-10_13h19.09.791,visual search,2024.2.1post4,59.98296484094683,2024-10-10 13h19.22.096664 +0530,
32,0,32,[0.24814814814814815],[-0.27037037037037037],[1],[0],[0],[2.792690100002801],['target'],32,0,32,0,83.20772880000004,,10,83.18633939999563,83.20772880000004,83.20772880000004,0.04283509998640511,85.97967220000282,[0.24814814814814815],[-0.27037037037037037],[1],[0],[0],[2.792690100002801],['target'],777365,001,2024-10-10_13h19.09.791,visual search,2024.2.1post4,59.98296484094683,2024-10-10 13h19.22.096664 +0530,
33,0,33,[0.3861111111111111],[0.1787037037037037],[1],[0],[0],[1.995126199995866],['target'],33,0,33,0,86.04970600000524,,10,86.03014810000604,86.04970600000524,86.04970600000524,0.05007630000181962,88.02581110000028,[0.3861111111111111],[0.1787037037037037],[1],[0],[0],[1.995126199995866],['target'],777365,001,2024-10-10_13h19.09.791,visual search,2024.2.1post4,59.98296484094683,2024-10-10 13h19.22.096664 +0530,
34,0,34,[0.37592592592592594],[-0.12962962962962962],[1],[0],[0],[1.8694605999917258],['target'],34,0,34,0,88.07686749999993,,10,88.05781220000063,88.07686749999993,88.07686749999993,0.03185699999448843,89.92792119999649,[0.37592592592592594],[-0.12962962962962962],[1],[0],[0],[1.8694605999917258],['target'],777365,001,2024-10-10_13h19.09.791,visual search,2024.2.1post4,59.98296484094683,2024-10-10 13h19.22.096664 +0530,
35,0,35,[0.2675925925925926],[0.04722222222222222],[1],[0],[0],[2.1095114999916404],['target'],35,0,35,0,90.00794850000239,,10,89.98521450000408,90.00794850000239,90.00794850000239,0.05689100000017788,92.09538990000146,[0.2675925925925926],[0.04722222222222222],[1],[0],[0],[2.1095114999916404],['target'],777365,001,2024-10-10_13h19.09.791,visual search,2024.2.1post4,59.98296484094683,2024-10-10 13h19.22.096664 +0530,
36,0,36,[-0.36574074074074076],[0.19074074074074074],[1],[0],[0],[2.3012441000028048],['target'],36,0,36,0,92.15002669999376,,5,92.12653720000526,92.15002669999376,92.15002669999376,0.030776400002650917,94.42847119999351,[-0.36574074074074076],[0.19074074074074074],[1],[0],[0],[2.3012441000028048],['target'],777365,001,2024-10-10_13h19.09.791,visual search,2024.2.1post4,59.98296484094683,2024-10-10 13h19.22.096664 +0530,
37,0,37,[0.004629629629629629],[0.07314814814814814],[1],[0],[0],[2.1925909999990836],['target'],37,0,37,0,94.49148989999958,,10,94.46849600000132,94.49148989999958,94.49148989999958,0.039692899998044595,96.66175769999973,[0.004629629629629629],[0.07314814814814814],[1],[0],[0],[2.1925909999990836],['target'],777365,001,2024-10-10_13h19.09.791,visual search,2024.2.1post4,59.98296484094683,2024-10-10 13h19.22.096664 +0530,
38,0,38,[-0.4203703703703704],[-0.11851851851851852],[1],[0],[0],[2.582643999994616],['target'],38,0,38,0,96.73133919999236,,10,96.71171360000153,96.73133919999236,96.73133919999236,0.04954819999693427,99.29499490000308,[-0.4203703703703704],[-0.11851851851851852],[1],[0],[0],[2.582643999994616],['target'],777365,001,2024-10-10_13h19.09.791,visual search,2024.2.1post4,59.98296484094683,2024-10-10 13h19.22.096664 +0530,
39,0,39,[-0.10277777777777777],[-0.32314814814814813],[1],[0],[0],[2.6513926000043284],['target'],39,0,39,0,99.34932609999669,,5,99.32656000000134,99.34932609999669,99.34932609999669,0.031195000003208406,101.97859280000557,[-0.10277777777777777],[-0.32314814814814813],[1],[0],[0],[2.6513926000043284],['target'],777365,001,2024-10-10_13h19.09.791,visual search,2024.2.1post4,59.98296484094683,2024-10-10 13h19.22.096664 +0530,
40,0,40,[0.38425925925925924],[-0.16574074074074074],[1],[0],[0],[1.9672830999916187],['target'],40,0,40,0,102.02654320000147,,5,102.0103417999926,102.02654320000147,102.02654320000147,0.03143200000340585,103.97824959999707,[0.38425925925925924],[-0.16574074074074074],[1],[0],[0],[1.9672830999916187],['target'],777365,001,2024-10-10_13h19.09.791,visual search,2024.2.1post4,59.98296484094683,2024-10-10 13h19.22.096664 +0530,
41,0,41,[-0.3333333333333333],[0.28425925925925927],[1],[0],[0],[2.172012299997732],['target'],41,0,41,0,104.06708389999403,,10,104.03935289999936,104.06708389999403,104.06708389999403,0.060809600006905384,106.21207900000445,[-0.3333333333333333],[0.28425925925925927],[1],[0],[0],[2.172012299997732],['target'],777365,001,2024-10-10_13h19.09.791,visual search,2024.2.1post4,59.98296484094683,2024-10-10 13h19.22.096664 +0530,
42,0,42,[-0.3101851851851852],[0.4722222222222222],[1],[0],[0],[10.296489300002577],['target'],42,0,42,0,106.27528279999387,,10,106.24867709999671,106.27528279999387,106.27528279999387,0.03619440000329632,116.54580779999378,[-0.3101851851851852],[0.4722222222222222],[1],[0],[0],[10.296489300002577],['target'],777365,001,2024-10-10_13h19.09.791,visual search,2024.2.1post4,59.98296484094683,2024-10-10 13h19.22.096664 +0530,
43,0,43,[0.03518518518518519],[-0.24166666666666667],[1],[0],[0],[2.6026753000041936],['target'],43,0,43,0,116.64262990000134,,10,116.60792700000457,116.64262990000134,116.64262990000134,0.06175019999500364,119.21112229999562,[0.03518518518518519],[-0.24166666666666667],[1],[0],[0],[2.6026753000041936],['target'],777365,001,2024-10-10_13h19.09.791,visual search,2024.2.1post4,59.98296484094683,2024-10-10 13h19.22.096664 +0530,
44,0,44,[0.08611111111111111],[-0.2611111111111111],[1],[0],[0],[1.6059718000033172],['target'],44,0,44,0,119.25941600000078,,10,119.23994270000549,119.25941600000078,119.25941600000078,0.02863929999875836,120.84668629999214,[0.08611111111111111],[-0.2611111111111111],[1],[0],[0],[1.6059718000033172],['target'],777365,001,2024-10-10_13h19.09.791,visual search,2024.2.1post4,59.98296484094683,2024-10-10 13h19.22.096664 +0530,
45,0,45,[-0.2601851851851852],[0.3398148148148148],[1],[0],[0],[2.6066777000087313],['target'],45,0,45,0,120.89247109999997,,5,120.87135410000337,120.89247109999997,120.89247109999997,0.02425550000043586,123.47870949999196,[-0.2601851851851852],[0.3398148148148148],[1],[0],[0],[2.6066777000087313],['target'],777365,001,2024-10-10_13h19.09.791,visual search,2024.2.1post4,59.98296484094683,2024-10-10 13h19.22.096664 +0530,
46,0,46,[0.36944444444444446],[-0.37407407407407406],[1],[0],[0],[3.465637200002675],['target'],46,0,46,0,123.54976549999265,,10,123.5309125000058,123.54976549999265,123.54976549999265,0.05186320000211708,126.99719680000271,[0.36944444444444446],[-0.37407407407407406],[1],[0],[0],[3.465637200002675],['target'],777365,001,2024-10-10_13h19.09.791,visual search,2024.2.1post4,59.98296484094683,2024-10-10 13h19.22.096664 +0530,
47,0,47,[-0.46574074074074073],[-0.08981481481481482],[1],[0],[0],[2.3887835999921663],['target'],47,0,47,0,127.06731689999287,,10,127.04478090000339,127.06731689999287,127.06731689999287,0.04719630000181496,129.4343041999964,[-0.46574074074074073],[-0.08981481481481482],[1],[0],[0],[2.3887835999921663],['target'],777365,001,2024-10-10_13h19.09.791,visual search,2024.2.1post4,59.98296484094683,2024-10-10 13h19.22.096664 +0530,
48,0,48,[-0.14722222222222223],[0.08425925925925926],[1],[0],[0],[2.304098200009321],['target'],48,0,48,0,129.4763238000014,,5,129.45753869999317,129.4763238000014,129.4763238000014,0.022520099999383092,131.7622962000023,[-0.14722222222222223],[0.08425925925925926],[1],[0],[0],[2.304098200009321],['target'],777365,001,2024-10-10_13h19.09.791,visual search,2024.2.1post4,59.98296484094683,2024-10-10 13h19.22.096664 +0530,
49,0,49,[-0.475],[0.4388888888888889],[1],[0],[0],[3.0356305000022985],['target'],49,0,49,0,131.830601499998,,10,131.81185699999332,131.830601499998,131.830601499998,0.049230599994189106,134.84813980000035,[-0.475],[0.4388888888888889],[1],[0],[0],[3.0356305000022985],['target'],777365,001,2024-10-10_13h19.09.791,visual search,2024.2.1post4,59.98296484094683,2024-10-10 13h19.22.096664 +0530,
50,0,50,[-0.4546296296296296],[-0.3685185185185185],[1],[0],[0],[2.657851199997822],['target'],50,0,50,0,134.89309359999606,,5,134.87146239999856,134.89309359999606,134.89309359999606,0.02293820001068525,137.52996640000492,[-0.4546296296296296],[-0.3685185185185185],[1],[0],[0],[2.657851199997822],['target'],777365,001,2024-10-10_13h19.09.791,visual search,2024.2.1post4,59.98296484094683,2024-10-10 13h19.22.096664 +0530,
51,0,51,[0.18333333333333332],[0.47962962962962963],[1],[0],[0],[3.305236200001673],['target'],51,0,51,0,137.5952244999935,,10,137.5739803000033,137.5952244999935,137.5952244999935,0.04369030000816565,140.8799219999928,[0.18333333333333332],[0.47962962962962963],[1],[0],[0],[3.305236200001673],['target'],777365,001,2024-10-10_13h19.09.791,visual search,2024.2.1post4,59.98296484094683,2024-10-10 13h19.22.096664 +0530,
52,0,52,[0.2759259259259259],[0.04722222222222222],[1],[0],[0],[3.6841244000097504],['target'],52,0,52,0,140.94902709999587,,10,140.9302999999927,140.94902709999587,140.94902709999587,0.04997269999876153,144.61506219999865,[0.2759259259259259],[0.04722222222222222],[1],[0],[0],[3.6841244000097504],['target'],777365,001,2024-10-10_13h19.09.791,visual search,2024.2.1post4,59.98296484094683,2024-10-10 13h19.22.096664 +0530,
53,0,53,[-0.3814814814814815],[-0.25],[1],[0],[0],[2.9835502000059932],['target'],53,0,53,0,144.6771427000058,,10,144.6511434999993,144.6771427000058,144.6771427000058,0.03568770000129007,147.63536210000166,[-0.3814814814814815],[-0.25],[1],[0],[0],[2.9835502000059932],['target'],777365,001,2024-10-10_13h19.09.791,visual search,2024.2.1post4,59.98296484094683,2024-10-10 13h19.22.096664 +0530,
54,0,54,[0.3333333333333333],[0.4824074074074074],[1],[0],[0],[2.6771263999980874],['target'],54,0,54,0,147.7105414999969,,10,147.68480970000383,147.7105414999969,147.7105414999969,0.04904859999078326,150.36230670000077,[0.3333333333333333],[0.4824074074074074],[1],[0],[0],[2.6771263999980874],['target'],777365,001,2024-10-10_13h19.09.791,visual search,2024.2.1post4,59.98296484094683,2024-10-10 13h19.22.096664 +0530,
55,0,55,[-0.3416666666666667],[0.2111111111111111],[1],[0],[0],[2.566738199995598],['target'],55,0,55,0,150.39535190000606,,5,150.38001449999865,150.39535190000606,150.39535190000606,0.01738350000232458,152.94745530000364,[-0.3416666666666667],[0.2111111111111111],[1],[0],[0],[2.566738199995598],['target'],777365,001,2024-10-10_13h19.09.791,visual search,2024.2.1post4,59.98296484094683,2024-10-10 13h19.22.096664 +0530,
56,0,56,[-0.44537037037037036],[0.05925925925925926],[1],[0],[0],[1.918916700000409],['target'],56,0,56,0,152.9851784999919,,5,152.9694926999946,152.9851784999919,152.9851784999919,0.021720999997342005,154.88905660000455,[-0.44537037037037036],[0.05925925925925926],[1],[0],[0],[1.918916700000409],['target'],777365,001,2024-10-10_13h19.09.791,visual search,2024.2.1post4,59.98296484094683,2024-10-10 13h19.22.096664 +0530,
57,0,57,[-0.4787037037037037],[0.040740740740740744],[1],[0],[0],[1.4426669999957085],['target'],57,0,57,0,154.94433329999447,,5,154.9206406000012,154.94433329999447,154.94433329999447,0.03128939999442082,156.36398549999285,[-0.4787037037037037],[0.040740740740740744],[1],[0],[0],[1.4426669999957085],['target'],777365,001,2024-10-10_13h19.09.791,visual search,2024.2.1post4,59.98296484094683,2024-10-10 13h19.22.096664 +0530,
58,0,58,[0.35185185185185186],[0.2916666666666667],[1],[0],[0],[2.586206100007985],['target'],58,0,58,0,156.41724870000326,,5,156.3937261999963,156.41724870000326,156.41724870000326,0.029441599996061996,158.9805544999981,[0.35185185185185186],[0.2916666666666667],[1],[0],[0],[2.586206100007985],['target'],777365,001,2024-10-10_13h19.09.791,visual search,2024.2.1post4,59.98296484094683,2024-10-10 13h19.22.096664 +0530,
59,0,59,[-0.45185185185185184],[0.47685185185185186],[1],[0],[0],[10.601031199999852],['target'],59,0,59,0,159.02783760000602,,5,159.0128243999934,159.02783760000602,159.02783760000602,0.03178920000209473,169.61447420000331,[-0.45185185185185184],[0.47685185185185186],[1],[0],[0],[10.601031199999852],['target'],777365,001,2024-10-10_13h19.09.791,visual search,2024.2.1post4,59.98296484094683,2024-10-10 13h19.22.096664 +0530,
60,0,60,[-0.24814814814814815],[0.36018518518518516],[1],[0],[0],[2.104079800003092],['target'],60,0,60,0,169.66782430000603,,5,169.6432191000058,169.66782430000603,169.66782430000603,0.028434799998649396,171.74793599999975,[-0.24814814814814815],[0.36018518518518516],[1],[0],[0],[2.104079800003092],['target'],777365,001,2024-10-10_13h19.09.791,visual search,2024.2.1post4,59.98296484094683,2024-10-10 13h19.22.096664 +0530,
61,0,61,[0.4722222222222222],[-0.4212962962962963],[1],[0],[0],[4.8984982999973],['target'],61,0,61,0,171.81919900000503,,10,171.79962970000634,171.81919900000503,171.81919900000503,0.05136639998818282,176.6988091999956,[0.4722222222222222],[-0.4212962962962963],[1],[0],[0],[4.8984982999973],['target'],777365,001,2024-10-10_13h19.09.791,visual search,2024.2.1post4,59.98296484094683,2024-10-10 13h19.22.096664 +0530,
62,0,62,[0.47129629629629627],[-0.3990740740740741],[1],[0],[0],[2.474722400002065],['target'],62,0,62,0,176.74508799999603,,5,176.72313159999612,176.74508799999603,176.74508799999603,0.023929300004965626,179.1984950000042,[0.47129629629629627],[-0.3990740740740741],[1],[0],[0],[2.474722400002065],['target'],777365,001,2024-10-10_13h19.09.791,visual search,2024.2.1post4,59.98296484094683,2024-10-10 13h19.22.096664 +0530,
63,0,63,[0.010185185185185186],[0.4759259259259259],[1],[0],[0],[6.4041582999925595],['target'],63,0,63,0,179.26311319999513,,10,179.24415179999778,179.26311319999513,179.26311319999513,0.04533520000404678,185.64896459999727,[0.010185185185185186],[0.4759259259259259],[1],[0],[0],[6.4041582999925595],['target'],777365,001,2024-10-10_13h19.09.791,visual search,2024.2.1post4,59.98296484094683,2024-10-10 13h19.22.096664 +0530,
64,0,64,[0.15185185185185185],[-0.40370370370370373],[1],[0],[0],[2.8379380999977],['target'],64,0,64,0,185.71776970000064,,10,185.69534390000626,185.71776970000064,185.71776970000064,0.04600280000886414,188.53395119999186,[0.15185185185185185],[-0.40370370370370373],[1],[0],[0],[2.8379380999977],['target'],777365,001,2024-10-10_13h19.09.791,visual search,2024.2.1post4,59.98296484094683,2024-10-10 13h19.22.096664 +0530,
65,0,65,[0.24351851851851852],[-0.14629629629629629],[1],[0],[0],[3.8224891999998363],['target'],65,0,65,0,188.59666260000085,,10,188.57710330000555,188.59666260000085,188.59666260000085,0.04273089999333024,192.4002818000008,[0.24351851851851852],[-0.14629629629629629],[1],[0],[0],[3.8224891999998363],['target'],777365,001,2024-10-10_13h19.09.791,visual search,2024.2.1post4,59.98296484094683,2024-10-10 13h19.22.096664 +0530,
66,0,66,[-0.1361111111111111],[0.046296296296296294],[1],[0],[0],[2.197136799994041],['target'],66,0,66,0,192.46270170000207,,5,192.43511330000183,192.46270170000207,192.46270170000207,0.034437599999364465,194.6329218000028,[-0.1361111111111111],[0.046296296296296294],[1],[0],[0],[2.197136799994041],['target'],777365,001,2024-10-10_13h19.09.791,visual search,2024.2.1post4,59.98296484094683,2024-10-10 13h19.22.096664 +0530,
67,0,67,[0.3925925925925926],[0.10185185185185185],[1],[0],[0],[3.792635599995265],['target'],67,0,67,0,194.70062309999776,,10,194.67723950000072,194.70062309999776,194.70062309999776,0.04399780000676401,198.47061780000513,[0.3925925925925926],[0.10185185185185185],[1],[0],[0],[3.792635599995265],['target'],777365,001,2024-10-10_13h19.09.791,visual search,2024.2.1post4,59.98296484094683,2024-10-10 13h19.22.096664 +0530,
68,0,68,[-0.39537037037037037],[-0.33240740740740743],[1],[0],[0],[2.9792696999938926],['target'],68,0,68,0,198.52948599999945,,5,198.50207089999458,198.52948599999945,198.52948599999945,0.03108309999515768,201.4819870999927,[-0.39537037037037037],[-0.33240740740740743],[1],[0],[0],[2.9792696999938926],['target'],777365,001,2024-10-10_13h19.09.791,visual search,2024.2.1post4,59.98296484094683,2024-10-10 13h19.22.096664 +0530,
69,0,69,[-0.022222222222222223],[-0.022222222222222223],[1],[0],[0],[3.5260171000118135],['target'],69,0,69,0,201.52991810000094,,5,201.50598180000088,201.52991810000094,201.52991810000094,0.023673100004089065,205.0326825999946,[-0.022222222222222223],[-0.022222222222222223],[1],[0],[0],[3.5260171000118135],['target'],777365,001,2024-10-10_13h19.09.791,visual search,2024.2.1post4,59.98296484094683,2024-10-10 13h19.22.096664 +0530,
70,0,70,[0.3490740740740741],[0.4148148148148148],[1],[0],[0],[3.710989700004575],['target'],70,0,70,0,205.06994889999623,,5,205.05457160000515,205.06994889999623,205.06994889999623,0.021566600000369363,208.76620589999948,[0.3490740740740741],[0.4148148148148148],[1],[0],[0],[3.710989700004575],['target'],777365,001,2024-10-10_13h19.09.791,visual search,2024.2.1post4,59.98296484094683,2024-10-10 13h19.22.096664 +0530,
71,0,71,[0.49074074074074076],[0.43333333333333335],[1],[0],[0],[1.863743499998236],['target'],71,0,71,0,208.84673989999283,,10,208.8193012999982,208.84673989999283,208.84673989999283,0.05277570000907872,210.68373429999338,[0.49074074074074076],[0.43333333333333335],[1],[0],[0],[1.863743499998236],['target'],777365,001,2024-10-10_13h19.09.791,visual search,2024.2.1post4,59.98296484094683,2024-10-10 13h19.22.096664 +0530,
72,0,72,[0.15462962962962962],[0.005555555555555556],[1],[0],[0],[3.28322979999939],['target'],72,0,72,0,210.74656200000027,,5,210.71575909999956,210.74656200000027,210.74656200000027,0.03164169999945443,213.999645399992,[0.15462962962962962],[0.005555555555555556],[1],[0],[0],[3.28322979999939],['target'],777365,001,2024-10-10_13h19.09.791,visual search,2024.2.1post4,59.98296484094683,2024-10-10 13h19.22.096664 +0530,
73,0,73,[0.19166666666666668],[0.4537037037037037],[1],[0],[0],[2.33760749999783],['target'],73,0,73,0,214.06850870000198,,10,214.0440660000022,214.06850870000198,214.06850870000198,0.044117900004494004,216.38231359999918,[0.19166666666666668],[0.4537037037037037],[1],[0],[0],[2.33760749999783],['target'],777365,001,2024-10-10_13h19.09.791,visual search,2024.2.1post4,59.98296484094683,2024-10-10 13h19.22.096664 +0530,
74,0,74,[-0.32314814814814813],[0.03981481481481482],[1],[0],[0],[2.463334100000793],['target'],74,0,74,0,216.4633496000024,,10,216.43669539999973,216.4633496000024,216.4633496000024,0.0539783999993233,218.9006909000018,[-0.32314814814814813],[0.03981481481481482],[1],[0],[0],[2.463334100000793],['target'],777365,001,2024-10-10_13h19.09.791,visual search,2024.2.1post4,59.98296484094683,2024-10-10 13h19.22.096664 +0530,
75,0,75,[-0.38425925925925924],[-0.028703703703703703],[1],[0],[0],[3.57715029999963],['target'],75,0,75,0,218.96341779999784,,10,218.9397336999973,218.96341779999784,218.96341779999784,0.03862830001162365,222.51753280000412,[-0.38425925925925924],[-0.028703703703703703],[1],[0],[0],[3.57715029999963],['target'],777365,001,2024-10-10_13h19.09.791,visual search,2024.2.1post4,59.98296484094683,2024-10-10 13h19.22.096664 +0530,
76,0,76,[0.3101851851851852],[-0.275],[1],[0],[0],[2.516425599998911],['target'],76,0,76,0,222.56648639999912,,5,222.54900289999205,222.56648639999912,222.56648639999912,0.03109499999845866,225.06605619999755,[0.3101851851851852],[-0.275],[1],[0],[0],[2.516425599998911],['target'],777365,001,2024-10-10_13h19.09.791,visual search,2024.2.1post4,59.98296484094683,2024-10-10 13h19.22.096664 +0530,
77,0,77,[0.3537037037037037],[0.053703703703703705],[1],[0],[0],[2.991021300011198],['target'],77,0,77,0,225.15088030000334,,10,225.1278100000054,225.15088030000334,225.15088030000334,0.06146840000292286,228.1194656000007,[0.3537037037037037],[0.053703703703703705],[1],[0],[0],[2.991021300011198],['target'],777365,001,2024-10-10_13h19.09.791,visual search,2024.2.1post4,59.98296484094683,2024-10-10 13h19.22.096664 +0530,
78,0,78,[-0.16296296296296298],[0.2324074074074074],[1],[0],[0],[1.9281238999974448],['target'],78,0,78,0,228.18064900000172,,5,228.15556020000076,228.18064900000172,228.18064900000172,0.03573230000620242,230.08430200000294,[-0.16296296296296298],[0.2324074074074074],[1],[0],[0],[1.9281238999974448],['target'],777365,001,2024-10-10_13h19.09.791,visual search,2024.2.1post4,59.98296484094683,2024-10-10 13h19.22.096664 +0530,
79,0,79,[-0.17314814814814813],[-0.11944444444444445],[1],[0],[0],[2.1528877000091597],['target'],79,0,79,0,230.13680989999557,,5,230.11363079999865,230.13680989999557,230.13680989999557,0.029005799995502457,232.26722270000027,[-0.17314814814814813],[-0.11944444444444445],[1],[0],[0],[2.1528877000091597],['target'],777365,001,2024-10-10_13h19.09.791,visual search,2024.2.1post4,59.98296484094683,2024-10-10 13h19.22.096664 +0530,
80,0,80,[-0.2638888888888889],[-0.075],[1],[0],[0],[1.888290799994138],['target'],80,0,80,0,232.33237279999594,,10,232.31244470000092,232.33237279999594,232.33237279999594,0.04483959999924991,234.20138959999895,[-0.2638888888888889],[-0.075],[1],[0],[0],[1.888290799994138],['target'],777365,001,2024-10-10_13h19.09.791,visual search,2024.2.1post4,59.98296484094683,2024-10-10 13h19.22.096664 +0530,
81,0,81,[-0.18981481481481483],[-0.43333333333333335],[1],[0],[0],[3.2948082000075374],['target'],81,0,81,0,234.280843799992,,10,234.25764179999533,234.280843799992,234.280843799992,0.05585360000259243,237.553107300002,[-0.18981481481481483],[-0.43333333333333335],[1],[0],[0],[3.2948082000075374],['target'],777365,001,2024-10-10_13h19.09.791,visual search,2024.2.1post4,59.98296484094683,2024-10-10 13h19.22.096664 +0530,
82,0,82,[-0.09722222222222222],[-0.4027777777777778],[1],[0],[0],[2.0291675999906147],['target'],82,0,82,0,237.6148111999937,,10,237.59578760000295,237.6148111999937,237.6148111999937,0.04228779999539256,239.62561049999204,[-0.09722222222222222],[-0.4027777777777778],[1],[0],[0],[2.0291675999906147],['target'],777365,001,2024-10-10_13h19.09.791,visual search,2024.2.1post4,59.98296484094683,2024-10-10 13h19.22.096664 +0530,
83,0,83,[0.47129629629629627],[-0.325],[1],[0],[0],[3.4832216999930097],['target'],83,0,83,0,239.66572740000265,,5,239.64983300000313,239.66572740000265,239.66572740000265,0.023842000009608455,243.13371359999292,[0.47129629629629627],[-0.325],[1],[0],[0],[3.4832216999930097],['target'],777365,001,2024-10-10_13h19.09.791,visual search,2024.2.1post4,59.98296484094683,2024-10-10 13h19.22.096664 +0530,
84,0,84,[0.4027777777777778],[0.001851851851851852],[1],[0],[0],[2.4265650999877835],['target'],84,0,84,0,243.18136499999673,,5,243.15717459999723,243.18136499999673,243.18136499999673,0.023148899999796413,245.58439269999508,[0.4027777777777778],[0.001851851851851852],[1],[0],[0],[2.4265650999877835],['target'],777365,001,2024-10-10_13h19.09.791,visual search,2024.2.1post4,59.98296484094683,2024-10-10 13h19.22.096664 +0530,
85,0,85,[-0.5009259259259259],[-0.40925925925925927],[1],[0],[0],[3.1079876000003424],['target'],85,0,85,0,245.652797799994,,10,245.63309329999902,245.652797799994,245.652797799994,0.048379699990618974,248.74149669999315,[-0.5009259259259259],[-0.40925925925925927],[1],[0],[0],[3.1079876000003424],['target'],777365,001,2024-10-10_13h19.09.791,visual search,2024.2.1post4,59.98296484094683,2024-10-10 13h19.22.096664 +0530,
86,0,86,[0.43425925925925923],[-0.044444444444444446],[1],[0],[0],[2.227440699993167],['target'],86,0,86,0,248.77064919999975,,5,248.7557589999924,248.77064919999975,248.77064919999975,0.014062600006582215,250.98389970000426,[0.43425925925925923],[-0.044444444444444446],[1],[0],[0],[2.227440699993167],['target'],777365,001,2024-10-10_13h19.09.791,visual search,2024.2.1post4,59.98296484094683,2024-10-10 13h19.22.096664 +0530,
87,0,87,[-0.13518518518518519],[0.42962962962962964],[1],[0],[0],[2.790135100003681],['target'],87,0,87,0,251.08175529999426,,10,251.04438039999513,251.08175529999426,251.08175529999426,0.060086500001489185,253.83513789999415,[-0.13518518518518519],[0.42962962962962964],[1],[0],[0],[2.790135100003681],['target'],777365,001,2024-10-10_13h19.09.791,visual search,2024.2.1post4,59.98296484094683,2024-10-10 13h19.22.096664 +0530,
88,0,88,[-0.2037037037037037],[-0.12314814814814815],[1],[0],[0],[2.4501686000003247],['target'],88,0,88,0,253.91500870000164,,10,253.8852235999948,253.91500870000164,253.91500870000164,0.049723899996024556,256.33601830000407,[-0.2037037037037037],[-0.12314814814814815],[1],[0],[0],[2.4501686000003247],['target'],777365,001,2024-10-10_13h19.09.791,visual search,2024.2.1post4,59.98296484094683,2024-10-10 13h19.22.096664 +0530,
89,0,89,[-0.001851851851851852],[0.13796296296296295],[1],[0],[0],[3.3993859000038356],['target'],89,0,89,0,256.39843909999763,,10,256.37727209999866,256.39843909999763,256.39843909999763,0.04085760000452865,259.77730580000207,[-0.001851851851851852],[0.13796296296296295],[1],[0],[0],[3.3993859000038356],['target'],777365,001,2024-10-10_13h19.09.791,visual search,2024.2.1post4,59.98296484094683,2024-10-10 13h19.22.096664 +0530,
90,0,90,[0.09166666666666666],[-0.12962962962962962],[1],[0],[0],[2.4662920999980997],['target'],90,0,90,0,259.8654072999925,,10,259.83600149999256,259.8654072999925,259.8654072999925,0.05831930000567809,262.3029183000035,[0.09166666666666666],[-0.12962962962962962],[1],[0],[0],[2.4662920999980997],['target'],777365,001,2024-10-10_13h19.09.791,visual search,2024.2.1post4,59.98296484094683,2024-10-10 13h19.22.096664 +0530,
91,0,91,[0.1814814814814815],[0.09907407407407408],[1],[0],[0],[3.3667858999979217],['target'],91,0,91,0,262.34925210000074,,5,262.33386959999916,262.34925210000074,262.34925210000074,0.030551900010323152,265.7013091999979,[0.1814814814814815],[0.09907407407407408],[1],[0],[0],[3.3667858999979217],['target'],777365,001,2024-10-10_13h19.09.791,visual search,2024.2.1post4,59.98296484094683,2024-10-10 13h19.22.096664 +0530,
92,0,92,[-0.03333333333333333],[0.36944444444444446],[1],[0],[0],[2.70810970000457],['target'],92,0,92,0,265.7990895999974,,10,265.761439599999,265.7990895999974,265.7990895999974,0.059850700010429136,268.4702010000037,[-0.03333333333333333],[0.36944444444444446],[1],[0],[0],[2.70810970000457],['target'],777365,001,2024-10-10_13h19.09.791,visual search,2024.2.1post4,59.98296484094683,2024-10-10 13h19.22.096664 +0530,
93,0,93,[0.41574074074074074],[-0.007407407407407408],[1],[0],[0],[3.4041634000022896],['target'],93,0,93,0,268.5581719000038,,10,268.5316727000027,268.5581719000038,268.5581719000038,0.06111150000651833,271.9364016000036,[0.41574074074074074],[-0.007407407407407408],[1],[0],[0],[3.4041634000022896],['target'],777365,001,2024-10-10_13h19.09.791,visual search,2024.2.1post4,59.98296484094683,2024-10-10 13h19.22.096664 +0530,
94,0,94,[0.21851851851851853],[0.28888888888888886],[1],[0],[0],[2.0139920999936294],['target'],94,0,94,0,271.990799399995,,10,271.97199479999836,271.990799399995,271.990799399995,0.035189400005037896,273.98665289999917,[0.21851851851851853],[0.28888888888888886],[1],[0],[0],[2.0139920999936294],['target'],777365,001,2024-10-10_13h19.09.791,visual search,2024.2.1post4,59.98296484094683,2024-10-10 13h19.22.096664 +0530,
95,0,95,[0.15092592592592594],[-0.3888888888888889],[1],[0],[0],[2.9129744000092614],['target'],95,0,95,0,274.0659311000054,,10,274.04002169999876,274.0659311000054,274.0659311000054,0.052963599999202415,276.9536819000059,[0.15092592592592594],[-0.3888888888888889],[1],[0],[0],[2.9129744000092614],['target'],777365,001,2024-10-10_13h19.09.791,visual search,2024.2.1post4,59.98296484094683,2024-10-10 13h19.22.096664 +0530,
96,0,96,[0.04537037037037037],[0.053703703703703705],[1],[0],[0],[2.239507699996466],['target'],96,0,96,0,277.0495525000006,,10,277.0142974000046,277.0495525000006,277.0495525000006,0.060258299999986775,279.25442899999325,[0.04537037037037037],[0.053703703703703705],[1],[0],[0],[2.239507699996466],['target'],777365,001,2024-10-10_13h19.09.791,visual search,2024.2.1post4,59.98296484094683,2024-10-10 13h19.22.096664 +0530,
97,0,97,[0.4935185185185185],[-0.027777777777777776],[1],[0],[0],[3.040203800002928],['target'],97,0,97,0,279.3159663999977,,10,279.29537150000397,279.3159663999977,279.3159663999977,0.04055499999958556,282.33615350000036,[0.4935185185185185],[-0.027777777777777776],[1],[0],[0],[3.040203800002928],['target'],777365,001,2024-10-10_13h19.09.791,visual search,2024.2.1post4,59.98296484094683,2024-10-10 13h19.22.096664 +0530,
98,0,98,[0.30648148148148147],[-0.17407407407407408],[1],[0],[0],[6.740082599993912],['target'],98,0,98,0,282.38994559999264,,10,282.3712949000037,282.38994559999264,282.38994559999264,0.034696400005486794,289.1120101999986,[0.30648148148148147],[-0.17407407407407408],[1],[0],[0],[6.740082599993912],['target'],777365,001,2024-10-10_13h19.09.791,visual search,2024.2.1post4,59.98296484094683,2024-10-10 13h19.22.096664 +0530,
99,0,99,[-0.4675925925925926],[-0.23425925925925925],[1],[0],[0],[2.516722200001823],['target'],99,0,99,0,289.1526012999966,,5,289.1362417000055,289.1526012999966,289.1526012999966,0.023784799996064976,291.6535409000062,[-0.4675925925925926],[-0.23425925925925925],[1],[0],[0],[2.516722200001823],['target'],777365,001,2024-10-10_13h19.09.791,visual search,2024.2.1post4,59.98296484094683,2024-10-10 13h19.22.096664 +0530,
100,0,100,[0.49444444444444446],[0.24722222222222223],[1],[0],[0],[3.4574474999972153],['target'],100,0,100,0,291.6999431000004,,5,291.6783915999986,291.6999431000004,291.6999431000004,0.024384600008488633,295.1364959999919,[0.49444444444444446],[0.24722222222222223],[1],[0],[0],[3.4574474999972153],['target'],777365,001,2024-10-10_13h19.09.791,visual search,2024.2.1post4,59.98296484094683,2024-10-10 13h19.22.096664 +0530,
101,0,101,[0.40370370370370373],[-0.12037037037037036],[1],[0],[0],[3.071392799989553],['target'],101,0,101,0,295.20675199999823,,10,295.1817694000056,295.20675199999823,295.20675199999823,0.044984599997405894,298.25380399999267,[0.40370370370370373],[-0.12037037037037036],[1],[0],[0],[3.071392799989553],['target'],777365,001,2024-10-10_13h19.09.791,visual search,2024.2.1post4,59.98296484094683,2024-10-10 13h19.22.096664 +0530,
102,0,102,[-0.4527777777777778],[-0.44814814814814813],[1],[0],[0],[3.853252999993856],['target'],102,0,102,0,298.3502748000028,,10,298.31573370000115,298.3502748000028,298.3502748000028,0.06157729998813011,302.16962919999787,[-0.4527777777777778],[-0.44814814814814813],[1],[0],[0],[3.853252999993856],['target'],777365,001,2024-10-10_13h19.09.791,visual search,2024.2.1post4,59.98296484094683,2024-10-10 13h19.22.096664 +0530,
103,0,103,[0.2935185185185185],[0.011111111111111112],[1],[0],[0],[1.8865540999977384],['target'],103,0,103,0,302.2238612999936,,5,302.20002669999667,302.2238612999936,302.2238612999936,0.03006180000375025,304.0871918000048,[0.2935185185185185],[0.011111111111111112],[1],[0],[0],[1.8865540999977384],['target'],777365,001,2024-10-10_13h19.09.791,visual search,2024.2.1post4,59.98296484094683,2024-10-10 13h19.22.096664 +0530,
104,0,104,[-0.49166666666666664],[0.40185185185185185],[1],[0],[0],[2.559952700001304],['target'],104,0,104,0,304.13372959999833,,5,304.1097343000001,304.13372959999833,304.13372959999833,0.022235500000533648,306.67037520000304,[-0.49166666666666664],[0.40185185185185185],[1],[0],[0],[2.559952700001304],['target'],777365,001,2024-10-10_13h19.09.791,visual search,2024.2.1post4,59.98296484094683,2024-10-10 13h19.22.096664 +0530,
105,0,105,[0.15925925925925927],[-0.39351851851851855],[1],[0],[0],[2.3267085000115912],['target'],105,0,105,0,306.7082745999942,,5,306.69313339999644,306.7082745999942,306.7082745999942,0.022427799995057285,309.020531999995,[0.15925925925925927],[-0.39351851851851855],[1],[0],[0],[2.3267085000115912],['target'],777365,001,2024-10-10_13h19.09.791,visual search,2024.2.1post4,59.98296484094683,2024-10-10 13h19.22.096664 +0530,
106,0,106,[0.07592592592592592],[0.48703703703703705],[1],[0],[0],[2.653724100004183],['target'],106,0,106,0,309.117571099996,,10,309.08282090000284,309.117571099996,309.117571099996,0.06200490001356229,311.7371693000023,[0.07592592592592592],[0.48703703703703705],[1],[0],[0],[2.653724100004183],['target'],777365,001,2024-10-10_13h19.09.791,visual search,2024.2.1post4,59.98296484094683,2024-10-10 13h19.22.096664 +0530,
107,0,107,[0.40555555555555556],[0.19907407407407407],[1],[0],[0],[2.87916640000185],['target'],107,0,107,0,311.81762449999223,,10,311.7830207999941,311.81762449999223,311.81762449999223,0.04546710000431631,314.6627925999928,[0.40555555555555556],[0.19907407407407407],[1],[0],[0],[2.87916640000185],['target'],777365,001,2024-10-10_13h19.09.791,visual search,2024.2.1post4,59.98296484094683,2024-10-10 13h19.22.096664 +0530,
108,0,108,[-0.3611111111111111],[-0.3509259259259259],[1],[0],[0],[3.099765600010869],['target'],108,0,108,0,314.7033345999953,,5,314.6873842999921,314.7033345999953,314.7033345999953,0.024163900001440197,317.78783879999537,[-0.3611111111111111],[-0.3509259259259259],[1],[0],[0],[3.099765600010869],['target'],777365,001,2024-10-10_13h19.09.791,visual search,2024.2.1post4,59.98296484094683,2024-10-10 13h19.22.096664 +0530,
109,0,109,[0.337037037037037],[0.25092592592592594],[1],[0],[0],[81.50231419999909],['target'],109,0,109,0,317.85840939999616,,10,317.8397010000044,317.85840939999616,317.85840939999616,0.05155410000588745,399.34267080000427,[0.337037037037037],[0.25092592592592594],[1],[0],[0],[81.50231419999909],['target'],777365,001,2024-10-10_13h19.09.791,visual search,2024.2.1post4,59.98296484094683,2024-10-10 13h19.22.096664 +0530,
110,0,110,[0.2675925925925926],[-0.2064814814814815],[1],[0],[0],[2.1995888000092236],['target'],110,0,110,0,399.38844009999593,,5,399.3734639000031,399.38844009999593,399.38844009999593,0.03039899999566842,401.573699799992,[0.2675925925925926],[-0.2064814814814815],[1],[0],[0],[2.1995888000092236],['target'],777365,001,2024-10-10_13h19.09.791,visual search,2024.2.1post4,59.98296484094683,2024-10-10 13h19.22.096664 +0530,
111,0,111,[0.11296296296296296],[0.4287037037037037],[1],[0],[0],[1.7018669999961276],['target'],111,0,111,0,401.6214803000039,,5,401.5973393000022,401.6214803000039,401.6214803000039,0.023332299999310635,403.29991529999825,[0.11296296296296296],[0.4287037037037037],[1],[0],[0],[1.7018669999961276],['target'],777365,001,2024-10-10_13h19.09.791,visual search,2024.2.1post4,59.98296484094683,2024-10-10 13h19.22.096664 +0530,
112,0,112,[0.04722222222222222],[0.47685185185185186],[1],[0],[0],[1.4096720999950776],['target'],112,0,112,0,403.354974899994,,5,403.3309314999933,403.354974899994,403.354974899994,0.030728300000191666,404.7412730999931,[0.04722222222222222],[0.47685185185185186],[1],[0],[0],[1.4096720999950776],['target'],777365,001,2024-10-10_13h19.09.791,visual search,2024.2.1post4,59.98296484094683,2024-10-10 13h19.22.096664 +0530,
113,0,113,[-0.17962962962962964],[0.49074074074074076],[1],[0],[0],[3.325555899995379],['target'],113,0,113,0,404.8045446000033,,10,404.784713999994,404.8045446000033,404.8045446000033,0.043065799996838905,408.1109357999958,[-0.17962962962962964],[0.49074074074074076],[1],[0],[0],[3.325555899995379],['target'],777365,001,2024-10-10_13h19.09.791,visual search,2024.2.1post4,59.98296484094683,2024-10-10 13h19.22.096664 +0530,
114,0,114,[0.07592592592592592],[0.06944444444444445],[1],[0],[0],[1.9905747000011615],['target'],114,0,114,0,408.18837069999427,,10,408.1669455999945,408.18837069999427,408.18837069999427,0.055548399992403574,410.15809450000233,[0.07592592592592592],[0.06944444444444445],[1],[0],[0],[1.9905747000011615],['target'],777365,001,2024-10-10_13h19.09.791,visual search,2024.2.1post4,59.98296484094683,2024-10-10 13h19.22.096664 +0530,
115,0,115,[-0.4101851851851852],[0.2722222222222222],[1],[0],[0],[1.8787511000118684],['target'],115,0,115,0,410.2116628999938,,5,410.1880938999966,410.2116628999938,410.2116628999938,0.02959230000851676,412.06771149999986,[-0.4101851851851852],[0.2722222222222222],[1],[0],[0],[1.8787511000118684],['target'],777365,001,2024-10-10_13h19.09.791,visual search,2024.2.1post4,59.98296484094683,2024-10-10 13h19.22.096664 +0530,
116,0,116,[-0.18518518518518517],[0.31851851851851853],[1],[0],[0],[1.7541830999980448],['target'],116,0,116,0,412.12269849999575,,10,412.1038170999964,412.12269849999575,412.12269849999575,0.03562490000331309,413.85869609999645,[-0.18518518518518517],[0.31851851851851853],[1],[0],[0],[1.7541830999980448],['target'],777365,001,2024-10-10_13h19.09.791,visual search,2024.2.1post4,59.98296484094683,2024-10-10 13h19.22.096664 +0530,
117,0,117,[-0.38055555555555554],[-0.03518518518518519],[1],[0],[0],[4.055552100006025],['target'],117,0,117,0,413.9230011000036,,10,413.90299380000215,413.9230011000036,413.9230011000036,0.043909600004553795,417.9592247999972,[-0.38055555555555554],[-0.03518518518518519],[1],[0],[0],[4.055552100006025],['target'],777365,001,2024-10-10_13h19.09.791,visual search,2024.2.1post4,59.98296484094683,2024-10-10 13h19.22.096664 +0530,
118,0,118,[-0.18055555555555555],[0.23703703703703705],[1],[0],[0],[3.0633796000038274],['target'],118,0,118,0,418.0296315000014,,10,418.0109708999953,418.0296315000014,418.0296315000014,0.0513585000007879,421.07499259999895,[-0.18055555555555555],[0.23703703703703705],[1],[0],[0],[3.0633796000038274],['target'],777365,001,2024-10-10_13h19.09.791,visual search,2024.2.1post4,59.98296484094683,2024-10-10 13h19.22.096664 +0530,
119,0,119,[0.4324074074074074],[0.30648148148148147],[1],[0],[0],[2.5933976999949664],['target'],119,0,119,0,421.1418649999978,,10,421.1150236999965,421.1418649999978,421.1418649999978,0.039726400005747564,423.70909449999453,[0.4324074074074074],[0.30648148148148147],[1],[0],[0],[2.5933976999949664],['target'],777365,001,2024-10-10_13h19.09.791,visual search,2024.2.1post4,59.98296484094683,2024-10-10 13h19.22.096664 +0530,
120,0,120,[-0.25555555555555554],[-0.0787037037037037],[1],[0],[0],[1.7532919999939622],['target'],120,0,120,0,423.7625321999949,,5,423.7390553000005,423.7625321999949,423.7625321999949,0.02963219999219291,425.49297199999273,[-0.25555555555555554],[-0.0787037037037037],[1],[0],[0],[1.7532919999939622],['target'],777365,001,2024-10-10_13h19.09.791,visual search,2024.2.1post4,59.98296484094683,2024-10-10 13h19.22.096664 +0530,
121,0,121,[0.09259259259259259],[0.2324074074074074],[1],[0],[0],[2.2992423999967286],['target'],121,0,121,0,425.54594159999397,,5,425.5256834000029,425.54594159999397,425.54594159999397,0.03242980000504758,427.8255497999926,[0.09259259259259259],[0.2324074074074074],[1],[0],[0],[2.2992423999967286],['target'],777365,001,2024-10-10_13h19.09.791,visual search,2024.2.1post4,59.98296484094683,2024-10-10 13h19.22.096664 +0530,
122,0,122,[-0.1],[-0.026851851851851852],[1],[0],[0],[1.9798350000055507],['target'],122,0,122,0,427.89761949999956,,10,427.87879099999554,427.89761949999956,427.89761949999956,0.052840100004686974,429.8593101000006,[-0.1],[-0.026851851851851852],[1],[0],[0],[1.9798350000055507],['target'],777365,001,2024-10-10_13h19.09.791,visual search,2024.2.1post4,59.98296484094683,2024-10-10 13h19.22.096664 +0530,
123,0,123,[0.009259259259259259],[-0.4675925925925926],[1],[0],[0],[2.376417699997546],['target'],123,0,123,0,429.9393216000026,,10,429.91621149999264,429.9393216000026,429.9393216000026,0.056512700000894256,432.2932712000038,[0.009259259259259259],[-0.4675925925925926],[1],[0],[0],[2.376417699997546],['target'],777365,001,2024-10-10_13h19.09.791,visual search,2024.2.1post4,59.98296484094683,2024-10-10 13h19.22.096664 +0530,
124,0,124,[-0.35],[-0.29907407407407405],[1],[0],[0],[3.212620499994955],['target'],124,0,124,0,432.3727792999998,,10,432.346815900004,432.3727792999998,432.3727792999998,0.053152499996940605,435.5600745999982,[-0.35],[-0.29907407407407405],[1],[0],[0],[3.212620499994955],['target'],777365,001,2024-10-10_13h19.09.791,visual search,2024.2.1post4,59.98296484094683,2024-10-10 13h19.22.096664 +0530,
125,0,125,[-0.3472222222222222],[-0.23333333333333334],[1],[0],[0],[2.243855499997153],['target'],125,0,125,0,435.6394841000001,,10,435.61681419999513,435.6394841000001,435.6394841000001,0.05634759999520611,437.8613544999971,[-0.3472222222222222],[-0.23333333333333334],[1],[0],[0],[2.243855499997153],['target'],777365,001,2024-10-10_13h19.09.791,visual search,2024.2.1post4,59.98296484094683,2024-10-10 13h19.22.096664 +0530,
126,0,126,[0.15462962962962962],[0.1398148148148148],[1],[0],[0],[2.702684499992756],['target'],126,0,126,0,437.9291239000013,,10,437.9081264999986,437.9291239000013,437.9291239000013,0.0463951999990968,440.61149619999924,[0.15462962962962962],[0.1398148148148148],[1],[0],[0],[2.702684499992756],['target'],777365,001,2024-10-10_13h19.09.791,visual search,2024.2.1post4,59.98296484094683,2024-10-10 13h19.22.096664 +0530,
127,0,127,[-0.3814814814814815],[0.475],[1],[0],[0],[8.436083099993994],['target'],127,0,127,0,440.7065231000015,,10,440.67386070000066,440.7065231000015,440.7065231000015,0.06200820000958629,449.11057289999735,[-0.3814814814814815],[0.475],[1],[0],[0],[8.436083099993994],['target'],777365,001,2024-10-10_13h19.09.791,visual search,2024.2.1post4,59.98296484094683,2024-10-10 13h19.22.096664 +0530,
128,0,128,[0.36203703703703705],[0.33796296296296297],[1],[0],[0],[2.5752611000061734],['target'],128,0,128,0,449.15676519999397,,5,449.1353017999936,449.15676519999397,449.15676519999397,0.024337099996046163,451.71120760000485,[0.36203703703703705],[0.33796296296296297],[1],[0],[0],[2.5752611000061734],['target'],777365,001,2024-10-10_13h19.09.791,visual search,2024.2.1post4,59.98296484094683,2024-10-10 13h19.22.096664 +0530,
129,0,129,[-0.412962962962963],[-0.023148148148148147],[1],[0],[0],[2.7148234999913257],['target'],129,0,129,0,451.7807868999953,,10,451.7621460999944,451.7807868999953,451.7807868999953,0.05062349999207072,454.4776584999927,[-0.412962962962963],[-0.023148148148148147],[1],[0],[0],[2.7148234999913257],['target'],777365,001,2024-10-10_13h19.09.791,visual search,2024.2.1post4,59.98296484094683,2024-10-10 13h19.22.096664 +0530,
130,0,130,[0.2212962962962963],[0.020370370370370372],[1],[0],[0],[2.045594399998663],['target'],130,0,130,0,454.54036830000405,,10,454.5141982000059,454.54036830000405,454.54036830000405,0.03615150001132861,456.56045200000517,[0.2212962962962963],[0.020370370370370372],[1],[0],[0],[2.045594399998663],['target'],777365,001,2024-10-10_13h19.09.791,visual search,2024.2.1post4,59.98296484094683,2024-10-10 13h19.22.096664 +0530,
131,0,131,[0.4361111111111111],[0.11388888888888889],[1],[0],[0],[1.9366562999930466],['target'],131,0,131,0,456.6137893999985,,5,456.5907547999959,456.6137893999985,456.6137893999985,0.029977900005178526,458.52818399999524,[0.4361111111111111],[0.11388888888888889],[1],[0],[0],[1.9366562999930466],['target'],777365,001,2024-10-10_13h19.09.791,visual search,2024.2.1post4,59.98296484094683,2024-10-10 13h19.22.096664 +0530,
132,0,132,[-0.14537037037037037],[-0.003703703703703704],[1],[0],[0],[2.2368106999929296],['target'],132,0,132,0,458.5925606999954,,10,458.5738311000023,458.5925606999954,458.5925606999954,0.045315700001083314,460.8112978999998,[-0.14537037037037037],[-0.003703703703703704],[1],[0],[0],[2.2368106999929296],['target'],777365,001,2024-10-10_13h19.09.791,visual search,2024.2.1post4,59.98296484094683,2024-10-10 13h19.22.096664 +0530,
133,0,133,[-0.387037037037037],[0.16018518518518518],[1],[0],[0],[2.468480700001237],['target'],133,0,133,0,460.8578125000058,,5,460.84155830000236,460.8578125000058,460.8578125000058,0.029906599986134097,463.3106657000026,[-0.387037037037037],[0.16018518518518518],[1],[0],[0],[2.468480700001237],['target'],777365,001,2024-10-10_13h19.09.791,visual search,2024.2.1post4,59.98296484094683,2024-10-10 13h19.22.096664 +0530,
134,0,134,[0.43148148148148147],[0.18981481481481483],[1],[0],[0],[3.414777400001185],['target'],134,0,134,0,463.36569320000126,,10,463.3460697999981,463.36569320000126,463.36569320000126,0.035088300006464124,466.7614973000018,[0.43148148148148147],[0.18981481481481483],[1],[0],[0],[3.414777400001185],['target'],777365,001,2024-10-10_13h19.09.791,visual search,2024.2.1post4,59.98296484094683,2024-10-10 13h19.22.096664 +0530,
135,0,135,[0.028703703703703703],[-0.42407407407407405],[1],[0],[0],[3.4765360000019427],['target'],135,0,135,0,466.840843900005,,10,466.81782280000334,466.840843900005,466.840843900005,0.05593159999989439,470.29501190000155,[0.028703703703703703],[-0.42407407407407405],[1],[0],[0],[3.4765360000019427],['target'],777365,001,2024-10-10_13h19.09.791,visual search,2024.2.1post4,59.98296484094683,2024-10-10 13h19.22.096664 +0530,
136,0,136,[0.07407407407407407],[0.3074074074074074],[1],[0],[0],[3.0240870999987237],['target'],136,0,136,0,470.3577617999981,,10,470.3365113000036,470.3577617999981,470.3577617999981,0.041098300003795885,473.36129749999964,[0.07407407407407407],[0.3074074074074074],[1],[0],[0],[3.0240870999987237],['target'],777365,001,2024-10-10_13h19.09.791,visual search,2024.2.1post4,59.98296484094683,2024-10-10 13h19.22.096664 +0530,
137,0,137,[0.1527777777777778],[0.09074074074074075],[1],[0],[0],[1.9096547000081046],['target'],137,0,137,0,473.4411251999991,,10,473.4172879999969,473.4411251999991,473.4411251999991,0.05559509999875445,475.32775240000046,[0.1527777777777778],[0.09074074074074075],[1],[0],[0],[1.9096547000081046],['target'],777365,001,2024-10-10_13h19.09.791,visual search,2024.2.1post4,59.98296484094683,2024-10-10 13h19.22.096664 +0530,
138,0,138,[-0.4361111111111111],[-0.38333333333333336],[1],[0],[0],[3.05377139999473],['target'],138,0,138,0,475.3970432999922,,10,475.3753185999958,475.3970432999922,475.3970432999922,0.047098499999265186,478.4298463000014,[-0.4361111111111111],[-0.38333333333333336],[1],[0],[0],[3.05377139999473],['target'],777365,001,2024-10-10_13h19.09.791,visual search,2024.2.1post4,59.98296484094683,2024-10-10 13h19.22.096664 +0530,
139,0,139,[0.2],[-0.4666666666666667],[1],[0],[0],[3.066085700003896],['target'],139,0,139,0,478.4915942999942,,5,478.4614370000054,478.4915942999942,478.4915942999942,0.031231700006173924,481.52818330000446,[0.2],[-0.4666666666666667],[1],[0],[0],[3.066085700003896],['target'],777365,001,2024-10-10_13h19.09.791,visual search,2024.2.1post4,59.98296484094683,2024-10-10 13h19.22.096664 +0530,
140,0,140,[0.11666666666666667],[0.4824074074074074],[1],[0],[0],[2.689210299999104],['target'],140,0,140,0,481.6169869000005,,10,481.5889645999996,481.6169869000005,481.6169869000005,0.06048729999747593,484.2788181999931,[0.11666666666666667],[0.4824074074074074],[1],[0],[0],[2.689210299999104],['target'],777365,001,2024-10-10_13h19.09.791,visual search,2024.2.1post4,59.98296484094683,2024-10-10 13h19.22.096664 +0530,
141,0,141,[0.37777777777777777],[0.45185185185185184],[1],[0],[0],[2.7595067999936873],['target'],141,0,141,0,484.3582291999919,,10,484.33511,484.3582291999919,484.3582291999919,0.05575120000867173,487.09530810000433,[0.37777777777777777],[0.45185185185185184],[1],[0],[0],[2.7595067999936873],['target'],777365,001,2024-10-10_13h19.09.791,visual search,2024.2.1post4,59.98296484094683,2024-10-10 13h19.22.096664 +0530,
142,0,142,[0.15185185185185185],[-0.30648148148148147],[1],[0],[0],[3.03581149999809],['target'],142,0,142,0,487.1417070000025,,5,487.12447510000493,487.1417070000025,487.1417070000025,0.0287631999963196,490.160978800006,[0.15185185185185185],[-0.30648148148148147],[1],[0],[0],[3.03581149999809],['target'],777365,001,2024-10-10_13h19.09.791,visual search,2024.2.1post4,59.98296484094683,2024-10-10 13h19.22.096664 +0530,
143,0,143,[-0.17685185185185184],[0.25],[1],[0],[0],[3.226339500004542],['target'],143,0,143,0,490.1997076999978,,5,490.183869600005,490.1997076999978,490.1997076999978,0.02257649999228306,493.410862299992,[-0.17685185185185184],[0.25],[1],[0],[0],[3.226339500004542],['target'],777365,001,2024-10-10_13h19.09.791,visual search,2024.2.1post4,59.98296484094683,2024-10-10 13h19.22.096664 +0530,
144,0,144,[-0.016666666666666666],[0.4777777777777778],[1],[0],[0],[1.9009638000134146],['target'],144,0,144,0,493.4667477000039,,5,493.4433945000055,493.4667477000039,493.4667477000039,0.032248000003164634,495.3450481000036,[-0.016666666666666666],[0.4777777777777778],[1],[0],[0],[1.9009638000134146],['target'],777365,001,2024-10-10_13h19.09.791,visual search,2024.2.1post4,59.98296484094683,2024-10-10 13h19.22.096664 +0530,
145,0,145,[0.21296296296296297],[-0.40370370370370373],[1],[0],[0],[2.3874219999997877],['target'],145,0,145,0,495.39643730000535,,5,495.3739535999921,495.39643730000535,495.39643730000535,0.02857949999452103,497.76207100000465,[0.21296296296296297],[-0.40370370370370373],[1],[0],[0],[2.3874219999997877],['target'],777365,001,2024-10-10_13h19.09.791,visual search,2024.2.1post4,59.98296484094683,2024-10-10 13h19.22.096664 +0530,
146,0,146,[-0.08981481481481482],[0.38981481481481484],[1],[0],[0],[1.817954700003611],['target'],146,0,146,0,497.81455070000084,,5,497.7928436999937,497.81455070000084,497.81455070000084,0.030515799997374415,499.61142299999483,[-0.08981481481481482],[0.38981481481481484],[1],[0],[0],[1.817954700003611],['target'],777365,001,2024-10-10_13h19.09.791,visual search,2024.2.1post4,59.98296484094683,2024-10-10 13h19.22.096664 +0530,
147,0,147,[0.2675925925925926],[-0.21574074074074073],[1],[0],[0],[3.7629073000134667],['target'],147,0,147,0,499.6923463999992,,10,499.6664768000046,499.6923463999992,499.6923463999992,0.054737300000851974,503.43011250000563,[0.2675925925925926],[-0.21574074074074073],[1],[0],[0],[3.7629073000134667],['target'],777365,001,2024-10-10_13h19.09.791,visual search,2024.2.1post4,59.98296484094683,2024-10-10 13h19.22.096664 +0530,
148,0,148,[-0.337037037037037],[0.4722222222222222],[1],[0],[0],[2.3816649000073085],['target'],148,0,148,0,503.48399130000325,,5,503.4626169999974,503.48399130000325,503.48399130000325,0.03212399999029003,505.8449308999989,[-0.337037037037037],[0.4722222222222222],[1],[0],[0],[2.3816649000073085],['target'],777365,001,2024-10-10_13h19.09.791,visual search,2024.2.1post4,59.98296484094683,2024-10-10 13h19.22.096664 +0530,
149,0,149,[-0.17592592592592593],[0.22870370370370371],[1],[0],[0],[2.153881899997941],['target'],149,0,149,0,505.89254309999524,,5,505.8735566999967,505.89254309999524,505.89254309999524,0.02831069999956526,508.0279714999924,[-0.17592592592592593],[0.22870370370370371],[1],[0],[0],[2.153881899997941],['target'],777365,001,2024-10-10_13h19.09.791,visual search,2024.2.1post4,59.98296484094683,2024-10-10 13h19.22.096664 +0530,
150,0,150,[0.3907407407407407],[-0.375],[1],[0],[0],[3.088962599998922],['target'],150,0,150,0,508.0947357999976,,10,508.07315599999856,508.0947357999976,508.0947357999976,0.04497199998877477,511.16289269999834,[0.3907407407407407],[-0.375],[1],[0],[0],[3.088962599998922],['target'],777365,001,2024-10-10_13h19.09.791,visual search,2024.2.1post4,59.98296484094683,2024-10-10 13h19.22.096664 +0530,
151,0,151,[-0.20277777777777778],[-0.26851851851851855],[1],[0],[0],[2.2953979000012623],['target'],151,0,151,0,511.22639169999456,,5,511.1996545000002,511.22639169999456,511.22639169999456,0.0364077999984147,513.4955729999929,[-0.20277777777777778],[-0.26851851851851855],[1],[0],[0],[2.2953979000012623],['target'],777365,001,2024-10-10_13h19.09.791,visual search,2024.2.1post4,59.98296484094683,2024-10-10 13h19.22.096664 +0530,
152,0,152,[0.13333333333333333],[0.48148148148148145],[1],[0],[0],[3.29890599999635],['target'],152,0,152,0,513.5428594999976,,5,513.5217412999918,513.5428594999976,513.5428594999976,0.025872999991406687,516.8212645000021,[0.13333333333333333],[0.48148148148148145],[1],[0],[0],[3.29890599999635],['target'],777365,001,2024-10-10_13h19.09.791,visual search,2024.2.1post4,59.98296484094683,2024-10-10 13h19.22.096664 +0530,
153,0,153,[0.1398148148148148],[-0.25925925925925924],[1],[0],[0],[3.4978235000016866],['target'],153,0,153,0,516.8842287000007,,10,516.8644545999996,516.8842287000007,516.8842287000007,0.04281569999875501,520.362936199992,[0.1398148148148148],[-0.25925925925925924],[1],[0],[0],[3.4978235000016866],['target'],777365,001,2024-10-10_13h19.09.791,visual search,2024.2.1post4,59.98296484094683,2024-10-10 13h19.22.096664 +0530,
154,0,154,[-0.3333333333333333],[0.1361111111111111],[1],[0],[0],[2.0750157999864314],['target'],154,0,154,0,520.4098609999928,,5,520.3876920000039,520.4098609999928,520.4098609999928,0.024368300000787713,522.463359100002,[-0.3333333333333333],[0.1361111111111111],[1],[0],[0],[2.0750157999864314],['target'],777365,001,2024-10-10_13h19.09.791,visual search,2024.2.1post4,59.98296484094683,2024-10-10 13h19.22.096664 +0530,
155,0,155,[0.175],[-0.13796296296296295],[1],[0],[0],[3.1638988999911817],['target'],155,0,155,0,522.5266665999952,,10,522.4994064000057,522.5266665999952,522.5266665999952,0.03572630000417121,525.6639495999989,[0.175],[-0.13796296296296295],[1],[0],[0],[3.1638988999911817],['target'],777365,001,2024-10-10_13h19.09.791,visual search,2024.2.1post4,59.98296484094683,2024-10-10 13h19.22.096664 +0530,
156,0,156,[0.2388888888888889],[0.44351851851851853],[1],[0],[0],[2.2176602000108687],['target'],156,0,156,0,525.7321233999974,,10,525.7124291999935,525.7321233999974,525.7321233999974,0.04808710000361316,527.9307943000022,[0.2388888888888889],[0.44351851851851853],[1],[0],[0],[2.2176602000108687],['target'],777365,001,2024-10-10_13h19.09.791,visual search,2024.2.1post4,59.98296484094683,2024-10-10 13h19.22.096664 +0530,
157,0,157,[-0.0962962962962963],[0.15833333333333333],[1],[0],[0],[1.8754055999888806],['target'],157,0,157,0,527.9768270000059,,5,527.9543015999952,527.9768270000059,527.9768270000059,0.0231257999985246,529.8304640999995,[-0.0962962962962963],[0.15833333333333333],[1],[0],[0],[1.8754055999888806],['target'],777365,001,2024-10-10_13h19.09.791,visual search,2024.2.1post4,59.98296484094683,2024-10-10 13h19.22.096664 +0530,
158,0,158,[-0.16111111111111112],[-0.0787037037037037],[1],[0],[0],[1.5428262000059476],['target'],158,0,158,0,529.9127055999998,,10,529.8869526000053,529.9127055999998,529.9127055999998,0.05619960000331048,531.430477899994,[-0.16111111111111112],[-0.0787037037037037],[1],[0],[0],[1.5428262000059476],['target'],777365,001,2024-10-10_13h19.09.791,visual search,2024.2.1post4,59.98296484094683,2024-10-10 13h19.22.096664 +0530,
159,0,159,[-0.023148148148148147],[0.26666666666666666],[1],[0],[0],[2.122734299991862],['target'],159,0,159,0,531.4950797000056,,10,531.4748117999989,531.4950797000056,531.4950797000056,0.04394550000142772,533.5982029000006,[-0.023148148148148147],[0.26666666666666666],[1],[0],[0],[2.122734299991862],['target'],777365,001,2024-10-10_13h19.09.791,visual search,2024.2.1post4,59.98296484094683,2024-10-10 13h19.22.096664 +0530,
160,0,160,[-0.006481481481481481],[0.12129629629629629],[1],[0],[0],[1.5425308999983827],['target'],160,0,160,0,533.6771286000003,,10,533.6548927999975,533.6771286000003,533.6771286000003,0.05629350000526756,535.1980747000052,[-0.006481481481481481],[0.12129629629629629],[1],[0],[0],[1.5425308999983827],['target'],777365,001,2024-10-10_13h19.09.791,visual search,2024.2.1post4,59.98296484094683,2024-10-10 13h19.22.096664 +0530,
161,0,161,[-0.24351851851851852],[-0.03611111111111111],[1],[0],[0],[2.2419466999999713],['target'],161,0,161,0,535.2436832999956,,5,535.2210047999979,535.2436832999956,535.2436832999956,0.02247670000360813,537.4635990999959,[-0.24351851851851852],[-0.03611111111111111],[1],[0],[0],[2.2419466999999713],['target'],777365,001,2024-10-10_13h19.09.791,visual search,2024.2.1post4,59.98296484094683,2024-10-10 13h19.22.096664 +0530,
162,0,162,[-0.06388888888888888],[0.16666666666666666],[1],[0],[0],[2.352650500004529],['target'],162,0,162,0,537.5105132000026,,5,537.4929570999957,537.5105132000026,537.5105132000026,0.029051400008029304,539.8462871999945,[-0.06388888888888888],[0.16666666666666666],[1],[0],[0],[2.352650500004529],['target'],777365,001,2024-10-10_13h19.09.791,visual search,2024.2.1post4,59.98296484094683,2024-10-10 13h19.22.096664 +0530,
163,0,163,[-0.34444444444444444],[-0.06111111111111111],[1],[0],[0],[2.15789329999825],['target'],163,0,163,0,539.9319823999977,,10,539.9067305999924,539.9319823999977,539.9319823999977,0.06015859999752138,542.0655757000059,[-0.34444444444444444],[-0.06111111111111111],[1],[0],[0],[2.15789329999825],['target'],777365,001,2024-10-10_13h19.09.791,visual search,2024.2.1post4,59.98296484094683,2024-10-10 13h19.22.096664 +0530,
164,0,164,[-0.3472222222222222],[0.40185185185185185],[1],[0],[0],[1.964971900000819],['target'],164,0,164,0,542.1189494999999,,5,542.0977102000033,542.1189494999999,542.1189494999999,0.03147650000755675,544.0633281000046,[-0.3472222222222222],[0.40185185185185185],[1],[0],[0],[1.964971900000819],['target'],777365,001,2024-10-10_13h19.09.791,visual search,2024.2.1post4,59.98296484094683,2024-10-10 13h19.22.096664 +0530,
165,0,165,[-0.4527777777777778],[-0.4583333333333333],[1],[0],[0],[2.5304257000098005],['target'],165,0,165,0,544.119518099993,,10,544.0999753999931,544.119518099993,544.119518099993,0.036337099998490885,546.631051599994,[-0.4527777777777778],[-0.4583333333333333],[1],[0],[0],[2.5304257000098005],['target'],777365,001,2024-10-10_13h19.09.791,visual search,2024.2.1post4,59.98296484094683,2024-10-10 13h19.22.096664 +0530,
166,0,166,[0.48333333333333334],[-0.19166666666666668],[1],[0],[0],[3.3404969000112033],['target'],166,0,166,0,546.7173848999955,,10,546.6911199000024,546.7173848999955,546.7173848999955,0.05970159999560565,550.0322842000023,[0.48333333333333334],[-0.19166666666666668],[1],[0],[0],[3.3404969000112033],['target'],777365,001,2024-10-10_13h19.09.791,visual search,2024.2.1post4,59.98296484094683,2024-10-10 13h19.22.096664 +0530,
167,0,167,[-0.08796296296296297],[-0.14907407407407408],[1],[0],[0],[1.775891800003592],['target'],167,0,167,0,550.0778741999966,,5,550.0545668999985,550.0778741999966,550.0778741999966,0.02188469999236986,551.8311482999998,[-0.08796296296296297],[-0.14907407407407408],[1],[0],[0],[1.775891800003592],['target'],777365,001,2024-10-10_13h19.09.791,visual search,2024.2.1post4,59.98296484094683,2024-10-10 13h19.22.096664 +0530,
168,0,168,[-0.4888888888888889],[-0.03796296296296296],[1],[0],[0],[3.30258839999442],['target'],168,0,168,0,551.911259600005,,10,551.8853455000062,551.911259600005,551.911259600005,0.05388770000718068,555.1885093000019,[-0.4888888888888889],[-0.03796296296296296],[1],[0],[0],[3.30258839999442],['target'],777365,001,2024-10-10_13h19.09.791,visual search,2024.2.1post4,59.98296484094683,2024-10-10 13h19.22.096664 +0530,
169,0,169,[0.42407407407407405],[-0.43425925925925923],[1],[0],[0],[3.1281027999939397],['target'],169,0,169,0,555.2363716999971,,5,555.2193930999929,555.2363716999971,555.2363716999971,0.030621900004916824,558.3481235999934,[0.42407407407407405],[-0.43425925925925923],[1],[0],[0],[3.1281027999939397],['target'],777365,001,2024-10-10_13h19.09.791,visual search,2024.2.1post4,59.98296484094683,2024-10-10 13h19.22.096664 +0530,
170,0,170,[0.28425925925925927],[-0.0787037037037037],[1],[0],[0],[1.8416365000011865],['target'],170,0,170,0,558.3948353000014,,5,558.3723423000047,558.3948353000014,558.3948353000014,0.023903900000732392,560.2146342000051,[0.28425925925925927],[-0.0787037037037037],[1],[0],[0],[1.8416365000011865],['target'],777365,001,2024-10-10_13h19.09.791,visual search,2024.2.1post4,59.98296484094683,2024-10-10 13h19.22.096664 +0530,
171,0,171,[-0.30925925925925923],[-0.3111111111111111],[1],[0],[0],[2.484809100002167],['target'],171,0,171,0,560.2679502999963,,5,560.2449553000042,560.2679502999963,560.2679502999963,0.03004979999968782,562.7304902000033,[-0.30925925925925923],[-0.3111111111111111],[1],[0],[0],[2.484809100002167],['target'],777365,001,2024-10-10_13h19.09.791,visual search,2024.2.1post4,59.98296484094683,2024-10-10 13h19.22.096664 +0530,
172,0,172,[0.1814814814814815],[0.4787037037037037],[1],[0],[0],[3.718119500001194],['target'],172,0,172,0,562.7867421999981,,10,562.7671924000024,562.7867421999981,562.7867421999981,0.03639120000298135,566.4858133999951,[0.1814814814814815],[0.4787037037037037],[1],[0],[0],[3.718119500001194],['target'],777365,001,2024-10-10_13h19.09.791,visual search,2024.2.1post4,59.98296484094683,2024-10-10 13h19.22.096664 +0530,
173,0,173,[0.2537037037037037],[0.14351851851851852],[1],[0],[0],[2.3145781999919564],['target'],173,0,173,0,566.5452415000036,,5,566.5166830999951,566.5452415000036,566.5452415000036,0.030527599999913946,568.8318367000029,[0.2537037037037037],[0.14351851851851852],[1],[0],[0],[2.3145781999919564],['target'],777365,001,2024-10-10_13h19.09.791,visual search,2024.2.1post4,59.98296484094683,2024-10-10 13h19.22.096664 +0530,
174,0,174,[0.31666666666666665],[-0.4398148148148148],[1],[0],[0],[2.8821201999962796],['target'],174,0,174,0,568.885096500002,,10,568.8665406999935,568.885096500002,568.885096500002,0.034340800004429184,571.7493097999977,[0.31666666666666665],[-0.4398148148148148],[1],[0],[0],[2.8821201999962796],['target'],777365,001,2024-10-10_13h19.09.791,visual search,2024.2.1post4,59.98296484094683,2024-10-10 13h19.22.096664 +0530,
175,0,175,[0.08703703703703704],[-0.4064814814814815],[1],[0],[0],[2.3555753999971785],['target'],175,0,175,0,571.8144496000023,,10,571.7943156999972,571.8144496000023,571.8144496000023,0.04461280000396073,574.1505366000056,[0.08703703703703704],[-0.4064814814814815],[1],[0],[0],[2.3555753999971785],['target'],777365,001,2024-10-10_13h19.09.791,visual search,2024.2.1post4,59.98296484094683,2024-10-10 13h19.22.096664 +0530,
176,0,176,[0.46944444444444444],[0.26666666666666666],[1],[0],[0],[1.7740558999939822],['target'],176,0,176,0,574.1955432999966,,5,574.1735575000057,574.1955432999966,574.1955432999966,0.022634900000412017,575.9482637000037,[0.46944444444444444],[0.26666666666666666],[1],[0],[0],[1.7740558999939822],['target'],777365,001,2024-10-10_13h19.09.791,visual search,2024.2.1post4,59.98296484094683,2024-10-10 13h19.22.096664 +0530,
177,0,177,[0.362962962962963],[0.21388888888888888],[1],[0],[0],[1.5470646000030683],['target'],177,0,177,0,576.0032414000016,,10,575.9844732000056,576.0032414000016,576.0032414000016,0.0358979000011459,577.5322008999938,[0.362962962962963],[0.21388888888888888],[1],[0],[0],[1.5470646000030683],['target'],777365,001,2024-10-10_13h19.09.791,visual search,2024.2.1post4,59.98296484094683,2024-10-10 13h19.22.096664 +0530,
178,0,178,[-0.23981481481481481],[-0.23148148148148148],[1],[0],[0],[2.4821752999996534],['target'],178,0,178,0,577.6702800999919,,10,577.6507053999958,577.6702800999919,577.6702800999919,0.11811530000704806,580.1335231999983,[-0.23981481481481481],[-0.23148148148148148],[1],[0],[0],[2.4821752999996534],['target'],777365,001,2024-10-10_13h19.09.791,visual search,2024.2.1post4,59.98296484094683,2024-10-10 13h19.22.096664 +0530,
179,0,179,[-0.45185185185185184],[-0.39814814814814814],[1],[0],[0],[3.26301070000045],['target'],179,0,179,0,580.2123581000051,,10,580.1871593999967,580.2123581000051,580.2123581000051,0.053251000004820526,583.450789399998,[-0.45185185185185184],[-0.39814814814814814],[1],[0],[0],[3.26301070000045],['target'],777365,001,2024-10-10_13h19.09.791,visual search,2024.2.1post4,59.98296484094683,2024-10-10 13h19.22.096664 +0530,
180,0,180,[-0.4027777777777778],[0.12777777777777777],[1],[0],[0],[1.9569748000067193],['target'],180,0,180,0,583.4957659999927,,5,583.4743349000055,583.4957659999927,583.4957659999927,0.023150100008933805,585.4320299999963,[-0.4027777777777778],[0.12777777777777777],[1],[0],[0],[1.9569748000067193],['target'],777365,001,2024-10-10_13h19.09.791,visual search,2024.2.1post4,59.98296484094683,2024-10-10 13h19.22.096664 +0530,
181,0,181,[0.041666666666666664],[-0.09537037037037037],[1],[0],[0],[2.1075446999893757],['target'],181,0,181,0,585.495940599998,,10,585.474533200002,585.495940599998,585.495940599998,0.042188800012809224,587.582719900005,[0.041666666666666664],[-0.09537037037037037],[1],[0],[0],[2.1075446999893757],['target'],777365,001,2024-10-10_13h19.09.791,visual search,2024.2.1post4,59.98296484094683,2024-10-10 13h19.22.096664 +0530,
182,0,182,[0.03611111111111111],[0.06666666666666667],[1],[0],[0],[1.9011853999982122],['target'],182,0,182,0,587.6510431000061,,10,587.6319493000046,587.6510431000061,587.6510431000061,0.04884730000048876,589.5338025999954,[0.03611111111111111],[0.06666666666666667],[1],[0],[0],[1.9011853999982122],['target'],777365,001,2024-10-10_13h19.09.791,visual search,2024.2.1post4,59.98296484094683,2024-10-10 13h19.22.096664 +0530,
183,0,183,[-0.12777777777777777],[-0.03148148148148148],[1],[0],[0],[1.900621399996453],['target'],183,0,183,0,589.5848747999989,,5,589.5639436000056,589.5848747999989,589.5848747999989,0.02979159999813419,591.4652655999962,[-0.12777777777777777],[-0.03148148148148148],[1],[0],[0],[1.900621399996453],['target'],777365,001,2024-10-10_13h19.09.791,visual search,2024.2.1post4,59.98296484094683,2024-10-10 13h19.22.096664 +0530,
184,0,184,[0.2657407407407407],[0.18796296296296297],[1],[0],[0],[1.9547064999933355],['target'],184,0,184,0,591.5164324999932,,5,591.4942021000024,591.5164324999932,591.5164324999932,0.028618299998925067,593.4495954000013,[0.2657407407407407],[0.18796296296296297],[1],[0],[0],[1.9547064999933355],['target'],777365,001,2024-10-10_13h19.09.791,visual search,2024.2.1post4,59.98296484094683,2024-10-10 13h19.22.096664 +0530,
185,0,185,[-0.4740740740740741],[-0.2388888888888889],[1],[0],[0],[2.118935699996655],['target'],185,0,185,0,593.5049077000003,,5,593.4798570999992,593.5049077000003,593.5049077000003,0.029978899998241104,595.5994161999988,[-0.4740740740740741],[-0.2388888888888889],[1],[0],[0],[2.118935699996655],['target'],777365,001,2024-10-10_13h19.09.791,visual search,2024.2.1post4,59.98296484094683,2024-10-10 13h19.22.096664 +0530,
186,0,186,[-0.1537037037037037],[-0.08333333333333333],[1],[0],[0],[2.4422842000058154],['target'],186,0,186,0,595.6631291999947,,10,595.6439698000031,595.6631291999947,595.6631291999947,0.044238600006792694,598.0869053999922,[-0.1537037037037037],[-0.08333333333333333],[1],[0],[0],[2.4422842000058154],['target'],777365,001,2024-10-10_13h19.09.791,visual search,2024.2.1post4,59.98296484094683,2024-10-10 13h19.22.096664 +0530,
187,0,187,[-0.13148148148148148],[-0.08055555555555556],[1],[0],[0],[1.1908551000087755],['target'],187,0,187,0,598.1534517999971,,10,598.1338885000005,598.1534517999971,598.1534517999971,0.046595599997090176,599.3254348000046,[-0.13148148148148148],[-0.08055555555555556],[1],[0],[0],[1.1908551000087755],['target'],777365,001,2024-10-10_13h19.09.791,visual search,2024.2.1post4,59.98296484094683,2024-10-10 13h19.22.096664 +0530,
188,0,188,[-0.3851851851851852],[0.39351851851851855],[1],[0],[0],[2.3153597000055015],['target'],188,0,188,0,599.386095599999,,10,599.367195400002,599.386095599999,599.386095599999,0.04136339999968186,601.6832409000053,[-0.3851851851851852],[0.39351851851851855],[1],[0],[0],[2.3153597000055015],['target'],777365,001,2024-10-10_13h19.09.791,visual search,2024.2.1post4,59.98296484094683,2024-10-10 13h19.22.096664 +0530,
189,0,189,[0.3055555555555556],[0.31296296296296294],[1],[0],[0],[2.260180900004343],['target'],189,0,189,0,601.7301325000008,,5,601.7059347000031,601.7301325000008,601.7301325000008,0.02230979999876581,603.9667625000002,[0.3055555555555556],[0.31296296296296294],[1],[0],[0],[2.260180900004343],['target'],777365,001,2024-10-10_13h19.09.791,visual search,2024.2.1post4,59.98296484094683,2024-10-10 13h19.22.096664 +0530,
190,0,190,[0.030555555555555555],[0.3685185185185185],[1],[0],[0],[1.5839719999930821],['target'],190,0,190,0,604.0218238999951,,5,603.9976793999958,604.0218238999951,604.0218238999951,0.030620700010331348,605.5822747999919,[0.030555555555555555],[0.3685185185185185],[1],[0],[0],[1.5839719999930821],['target'],777365,001,2024-10-10_13h19.09.791,visual search,2024.2.1post4,59.98296484094683,2024-10-10 13h19.22.096664 +0530,
191,0,191,[0.31851851851851853],[0.06111111111111111],[1],[0],[0],[2.0362129999994067],['target'],191,0,191,0,605.6367497000028,,5,605.6130264999956,605.6367497000028,605.6367497000028,0.030475500010652468,607.6497413000034,[0.31851851851851853],[0.06111111111111111],[1],[0],[0],[2.0362129999994067],['target'],777365,001,2024-10-10_13h19.09.791,visual search,2024.2.1post4,59.98296484094683,2024-10-10 13h19.22.096664 +0530,
192,0,192,[-0.26851851851851855],[0.16944444444444445],[1],[0],[0],[2.2702447999909054],['target'],192,0,192,0,607.7031569999963,,5,607.679478799997,607.7031569999963,607.7031569999963,0.02940229998785071,609.9507364000019,[-0.26851851851851855],[0.16944444444444445],[1],[0],[0],[2.2702447999909054],['target'],777365,001,2024-10-10_13h19.09.791,visual search,2024.2.1post4,59.98296484094683,2024-10-10 13h19.22.096664 +0530,
193,0,193,[0.287962962962963],[0.3074074074074074],[1],[0],[0],[1.9636046000086935],['target'],193,0,193,0,610.0471433000057,,10,610.0112843999959,610.0471433000057,610.0471433000057,0.06008770001062658,611.9755048999941,[0.287962962962963],[0.3074074074074074],[1],[0],[0],[1.9636046000086935],['target'],777365,001,2024-10-10_13h19.09.791,visual search,2024.2.1post4,59.98296484094683,2024-10-10 13h19.22.096664 +0530,
194,0,194,[0.48148148148148145],[-0.26481481481481484],[1],[0],[0],[2.609778300000471],['target'],194,0,194,0,612.0313751999929,,10,612.0111797999998,612.0313751999929,612.0313751999929,0.03528349999396596,614.6216335999925,[0.48148148148148145],[-0.26481481481481484],[1],[0],[0],[2.609778300000471],['target'],777365,001,2024-10-10_13h19.09.791,visual search,2024.2.1post4,59.98296484094683,2024-10-10 13h19.22.096664 +0530,
195,0,195,[-0.1527777777777778],[0.20185185185185187],[1],[0],[0],[1.8044582000002265],['target'],195,0,195,0,614.6637751999951,,5,614.6447821000038,614.6637751999951,614.6637751999951,0.02276190000702627,616.4499238999997,[-0.1527777777777778],[0.20185185185185187],[1],[0],[0],[1.8044582000002265],['target'],777365,001,2024-10-10_13h19.09.791,visual search,2024.2.1post4,59.98296484094683,2024-10-10 13h19.22.096664 +0530,
196,0,196,[-0.43796296296296294],[-0.4064814814814815],[1],[0],[0],[2.4531799999967916],['target'],196,0,196,0,616.5191836000013,,10,616.4980234999966,616.5191836000013,616.5191836000013,0.0477688999962993,618.9518793000025,[-0.43796296296296294],[-0.4064814814814815],[1],[0],[0],[2.4531799999967916],['target'],777365,001,2024-10-10_13h19.09.791,visual search,2024.2.1post4,59.98296484094683,2024-10-10 13h19.22.096664 +0530,
197,0,197,[0.012962962962962963],[-0.03425925925925926],[1],[0],[0],[2.484390899990103],['target'],197,0,197,0,619.0063587000041,,5,618.9826184999984,619.0063587000041,619.0063587000041,0.030294900003354996,621.4676762000017,[0.012962962962962963],[-0.03425925925925926],[1],[0],[0],[2.484390899990103],['target'],777365,001,2024-10-10_13h19.09.791,visual search,2024.2.1post4,59.98296484094683,2024-10-10 13h19.22.096664 +0530,
198,0,198,[0.06574074074074074],[0.06851851851851852],[1],[0],[0],[1.691764699993655],['target'],198,0,198,0,621.5309131999966,,10,621.507440699992,621.5309131999966,621.5309131999966,0.03944799999590032,623.1998939000041,[0.06574074074074074],[0.06851851851851852],[1],[0],[0],[1.691764699993655],['target'],777365,001,2024-10-10_13h19.09.791,visual search,2024.2.1post4,59.98296484094683,2024-10-10 13h19.22.096664 +0530,
199,0,199,[0.43703703703703706],[0.2953703703703704],[1],[0],[0],[1.9866895000013756],['target'],199,0,199,0,623.2703805000056,,10,623.2462778000045,623.2703805000056,623.2703805000056,0.04602310000336729,625.2336041999952,[0.43703703703703706],[0.2953703703703704],[1],[0],[0],[1.9866895000013756],['target'],777365,001,2024-10-10_13h19.09.791,visual search,2024.2.1post4,59.98296484094683,2024-10-10 13h19.22.096664 +0530,
