thisN,thisTrialN,thisRepN,mouse.x,mouse.y,mouse.leftButton,mouse.midButton,mouse.rightButton,mouse.time,mouse.clicked_name,trials.thisRepN,trials.thisTrialN,trials.thisN,trials.thisIndex,thisRow.t,notes,num_distr,trial.started,fixtion.started,target.started,mouse.started,trial.stopped,trials.mouse.x,trials.mouse.y,trials.mouse.leftButton,trials.mouse.midButton,trials.mouse.rightButton,trials.mouse.time,trials.mouse.clicked_name,participant,session,date,expName,psychopyVersion,frameRate,expStart,
0,0,0,[0.08],[-0.08],[1],[0],[0],[2.890106199999991],['target'],0,0,0,0,0.13941649999992478,,10,0.09299549999991541,0.13941649999992478,0.13941649999992478,0.09250750000001062,2.983950199999981,[0.08],[-0.08],[1],[0],[0],[2.890106199999991],['target'],013905,001,2024-10-10_13h40.50.529,visual search,2024.2.1post4,59.42844102558148,2024-10-10 13h41.46.975784 +0530,
1,0,1,[-0.21333333333333335],[-0.215],[1],[0],[0],[2.702429400000028],['target'],1,0,1,0,3.0315488999999616,,5,3.012313499999891,3.0315488999999616,3.0315488999999616,0.028086199999961536,5.7155007999999725,[-0.21333333333333335],[-0.215],[1],[0],[0],[2.702429400000028],['target'],013905,001,2024-10-10_13h40.50.529,visual search,2024.2.1post4,59.42844102558148,2024-10-10 13h41.46.975784 +0530,
2,0,2,[-0.275],[-0.43],[1],[0],[0],[3.3506351999999424],['target'],2,0,2,0,5.764750499999991,,5,5.746897799999942,5.764750499999991,5.764750499999991,0.030995500000017273,9.098614899999916,[-0.275],[-0.43],[1],[0],[0],[3.3506351999999424],['target'],013905,001,2024-10-10_13h40.50.529,visual search,2024.2.1post4,59.42844102558148,2024-10-10 13h41.46.975784 +0530,
3,0,3,[-0.48333333333333334],[0.2833333333333333],[1],[0],[0],[14.496524700000009],['target'],3,0,3,0,9.151405599999975,,5,9.131639699999937,9.151405599999975,9.151405599999975,0.032489899999973204,23.62891599999989,[-0.48333333333333334],[0.2833333333333333],[1],[0],[0],[14.496524700000009],['target'],013905,001,2024-10-10_13h40.50.529,visual search,2024.2.1post4,59.42844102558148,2024-10-10 13h41.46.975784 +0530,
4,0,4,[-0.2866666666666667],[0.11333333333333333],[1],[0],[0],[3.18234659999996],['target'],4,0,4,0,23.703622299999893,,10,23.681413699999894,23.703622299999893,23.703622299999893,0.05229640000004565,26.864582499999983,[-0.2866666666666667],[0.11333333333333333],[1],[0],[0],[3.18234659999996],['target'],013905,001,2024-10-10_13h40.50.529,visual search,2024.2.1post4,59.42844102558148,2024-10-10 13h41.46.975784 +0530,
5,0,5,[-0.37833333333333335],[0.2683333333333333],[1],[0],[0],[2.7824329000000034],['target'],5,0,5,0,26.9148457,,5,26.898038699999915,26.9148457,26.9148457,0.033076000000050954,29.681240199999934,[-0.37833333333333335],[0.2683333333333333],[1],[0],[0],[2.7824329000000034],['target'],013905,001,2024-10-10_13h40.50.529,visual search,2024.2.1post4,59.42844102558148,2024-10-10 13h41.46.975784 +0530,
6,0,6,[0.24166666666666667],[0.25333333333333335],[1],[0],[0],[2.725765200000069],['target'],6,0,6,0,29.71984199999997,,5,29.703748699999892,29.71984199999997,29.71984199999997,0.022303899999997157,32.43020299999989,[0.24166666666666667],[0.25333333333333335],[1],[0],[0],[2.725765200000069],['target'],013905,001,2024-10-10_13h40.50.529,visual search,2024.2.1post4,59.42844102558148,2024-10-10 13h41.46.975784 +0530,
7,0,7,[0.42333333333333334],[-0.13833333333333334],[1],[0],[0],[2.442050999999992],['target'],7,0,7,0,32.47000049999997,,5,32.45410069999991,32.47000049999997,32.47000049999997,0.023693600000001425,34.896889399999964,[0.42333333333333334],[-0.13833333333333334],[1],[0],[0],[2.442050999999992],['target'],013905,001,2024-10-10_13h40.50.529,visual search,2024.2.1post4,59.42844102558148,2024-10-10 13h41.46.975784 +0530,
8,0,8,[0.26166666666666666],[-0.135],[1],[0],[0],[2.963773100000026],['target'],8,0,8,0,34.93479119999995,,5,34.91934709999998,34.93479119999995,34.93479119999995,0.022264599999971324,37.88403509999989,[0.26166666666666666],[-0.135],[1],[0],[0],[2.963773100000026],['target'],013905,001,2024-10-10_13h40.50.529,visual search,2024.2.1post4,59.42844102558148,2024-10-10 13h41.46.975784 +0530,
9,0,9,[-0.3283333333333333],[-0.4166666666666667],[1],[0],[0],[4.128327399999989],['target'],9,0,9,0,37.96871809999993,,10,37.93571559999998,37.96871809999993,37.96871809999993,0.051332000000002154,42.06493039999998,[-0.3283333333333333],[-0.4166666666666667],[1],[0],[0],[4.128327399999989],['target'],013905,001,2024-10-10_13h40.50.529,visual search,2024.2.1post4,59.42844102558148,2024-10-10 13h41.46.975784 +0530,
10,0,10,[0.3883333333333333],[-0.345],[1],[0],[0],[2.8744433000000527],['target'],10,0,10,0,42.14498679999997,,10,42.124578499999984,42.14498679999997,42.14498679999997,0.059248599999932594,44.99983929999996,[0.3883333333333333],[-0.345],[1],[0],[0],[2.8744433000000527],['target'],013905,001,2024-10-10_13h40.50.529,visual search,2024.2.1post4,59.42844102558148,2024-10-10 13h41.46.975784 +0530,
11,0,11,[-0.0033333333333333335],[0.05333333333333334],[1],[0],[0],[5.9424785999999585],['target'],11,0,11,0,45.03864379999993,,5,45.022335099999964,45.03864379999993,45.03864379999993,0.02228930000001128,50.96554919999994,[-0.0033333333333333335],[0.05333333333333334],[1],[0],[0],[5.9424785999999585],['target'],013905,001,2024-10-10_13h40.50.529,visual search,2024.2.1post4,59.42844102558148,2024-10-10 13h41.46.975784 +0530,
12,0,12,[0.3516666666666667],[-0.10166666666666667],[1],[0],[0],[2.4186793999999736],['target'],12,0,12,0,51.012258199999906,,5,50.99639659999991,51.012258199999906,51.012258199999906,0.030537700000081713,53.415797899999916,[0.3516666666666667],[-0.10166666666666667],[1],[0],[0],[2.4186793999999736],['target'],013905,001,2024-10-10_13h40.50.529,visual search,2024.2.1post4,59.42844102558148,2024-10-10 13h41.46.975784 +0530,
13,0,13,[0.4766666666666667],[0.2866666666666667],[1],[0],[0],[2.557967500000018],['target'],13,0,13,0,53.50766599999997,,10,53.47484599999996,53.50766599999997,53.50766599999997,0.058787499999994,56.03372649999994,[0.4766666666666667],[0.2866666666666667],[1],[0],[0],[2.557967500000018],['target'],013905,001,2024-10-10_13h40.50.529,visual search,2024.2.1post4,59.42844102558148,2024-10-10 13h41.46.975784 +0530,
14,0,14,[0.3283333333333333],[0.11833333333333333],[1],[0],[0],[1.6955601999999317],['target'],14,0,14,0,56.10916759999998,,10,56.08650429999989,56.10916759999998,56.10916759999998,0.05238459999998213,57.78283179999994,[0.3283333333333333],[0.11833333333333333],[1],[0],[0],[1.6955601999999317],['target'],013905,001,2024-10-10_13h40.50.529,visual search,2024.2.1post4,59.42844102558148,2024-10-10 13h41.46.975784 +0530,
15,0,15,[-0.38666666666666666],[0.33666666666666667],[1],[0],[0],[2.7715615000000753],['target'],15,0,15,0,57.84782359999997,,10,57.8264901,57.84782359999997,57.84782359999997,0.04340700000000197,60.598954299999946,[-0.38666666666666666],[0.33666666666666667],[1],[0],[0],[2.7715615000000753],['target'],013905,001,2024-10-10_13h40.50.529,visual search,2024.2.1post4,59.42844102558148,2024-10-10 13h41.46.975784 +0530,
16,0,16,[-0.2916666666666667],[-0.12166666666666667],[1],[0],[0],[1.8661480000000665],['target'],16,0,16,0,60.649968299999955,,5,60.63050099999998,60.649968299999955,60.649968299999955,0.031182699999931174,62.49730349999993,[-0.2916666666666667],[-0.12166666666666667],[1],[0],[0],[1.8661480000000665],['target'],013905,001,2024-10-10_13h40.50.529,visual search,2024.2.1post4,59.42844102558148,2024-10-10 13h41.46.975784 +0530,
17,0,17,[0.49166666666666664],[0.03666666666666667],[1],[0],[0],[2.1066821999999092],['target'],17,0,17,0,62.562802399999896,,10,62.54053739999995,62.562802399999896,62.562802399999896,0.04303939999999784,64.6479359,[0.49166666666666664],[0.03666666666666667],[1],[0],[0],[2.1066821999999092],['target'],013905,001,2024-10-10_13h40.50.529,visual search,2024.2.1post4,59.42844102558148,2024-10-10 13h41.46.975784 +0530,
18,0,18,[0.31666666666666665],[-0.43833333333333335],[1],[0],[0],[2.443370800000025],['target'],18,0,18,0,64.71322049999992,,10,64.6913646999999,64.71322049999992,64.71322049999992,0.04318200000000161,67.13570199999992,[0.31666666666666665],[-0.43833333333333335],[1],[0],[0],[2.443370800000025],['target'],013905,001,2024-10-10_13h40.50.529,visual search,2024.2.1post4,59.42844102558148,2024-10-10 13h41.46.975784 +0530,
19,0,19,[0.3566666666666667],[0.13666666666666666],[1],[0],[0],[2.479413900000054],['target'],19,0,19,0,67.19300549999991,,5,67.17036509999991,67.19300549999991,67.19300549999991,0.034282299999972565,69.65063939999993,[0.3566666666666667],[0.13666666666666666],[1],[0],[0],[2.479413900000054],['target'],013905,001,2024-10-10_13h40.50.529,visual search,2024.2.1post4,59.42844102558148,2024-10-10 13h41.46.975784 +0530,
20,0,20,[-0.09333333333333334],[0.03833333333333333],[1],[0],[0],[2.0719371999999794],['target'],20,0,20,0,69.71564539999997,,10,69.6944140999999,69.71564539999997,69.71564539999997,0.04357330000004822,71.76716829999998,[-0.09333333333333334],[0.03833333333333333],[1],[0],[0],[2.0719371999999794],['target'],013905,001,2024-10-10_13h40.50.529,visual search,2024.2.1post4,59.42844102558148,2024-10-10 13h41.46.975784 +0530,
21,0,21,[-0.39666666666666667],[0.4866666666666667],[1],[0],[0],[4.275023799999985],['target'],21,0,21,0,71.8476063999999,,10,71.82568459999993,71.8476063999999,71.8476063999999,0.057983200000080615,76.10173769999994,[-0.39666666666666667],[0.4866666666666667],[1],[0],[0],[4.275023799999985],['target'],013905,001,2024-10-10_13h40.50.529,visual search,2024.2.1post4,59.42844102558148,2024-10-10 13h41.46.975784 +0530,
22,0,22,[-0.27166666666666667],[-0.33],[1],[0],[0],[2.8562423000000763],['target'],22,0,22,0,76.18178439999997,,10,76.1590657999999,76.18178439999997,76.18178439999997,0.056743500000038694,79.01603809999995,[-0.27166666666666667],[-0.33],[1],[0],[0],[2.8562423000000763],['target'],013905,001,2024-10-10_13h40.50.529,visual search,2024.2.1post4,59.42844102558148,2024-10-10 13h41.46.975784 +0530,
23,0,23,[0.018333333333333333],[-0.415],[1],[0],[0],[1.582840899999951],['target'],23,0,23,0,79.05463889999999,,5,79.03873579999993,79.05463889999999,79.05463889999999,0.022457000000031258,80.62236489999998,[0.018333333333333333],[-0.415],[1],[0],[0],[1.582840899999951],['target'],013905,001,2024-10-10_13h40.50.529,visual search,2024.2.1post4,59.42844102558148,2024-10-10 13h41.46.975784 +0530,
24,0,24,[0.4166666666666667],[0.165],[1],[0],[0],[2.2280064000000266],['target'],24,0,24,0,80.6726081999999,,5,80.65545249999991,80.6726081999999,80.6726081999999,0.0325598000000582,82.88415989999999,[0.4166666666666667],[0.165],[1],[0],[0],[2.2280064000000266],['target'],013905,001,2024-10-10_13h40.50.529,visual search,2024.2.1post4,59.42844102558148,2024-10-10 13h41.46.975784 +0530,
25,0,25,[-0.07333333333333333],[-0.29833333333333334],[1],[0],[0],[2.733407599999964],['target'],25,0,25,0,82.95623049999995,,10,82.93493449999994,82.95623049999995,82.95623049999995,0.05053259999999682,85.66925729999991,[-0.07333333333333333],[-0.29833333333333334],[1],[0],[0],[2.733407599999964],['target'],013905,001,2024-10-10_13h40.50.529,visual search,2024.2.1post4,59.42844102558148,2024-10-10 13h41.46.975784 +0530,
26,0,26,[0.055],[-0.02],[1],[0],[0],[2.2013451999999916],['target'],26,0,26,0,85.71730309999998,,5,85.70117089999997,85.71730309999998,85.71730309999998,0.03134130000000823,87.90332509999996,[0.055],[-0.02],[1],[0],[0],[2.2013451999999916],['target'],013905,001,2024-10-10_13h40.50.529,visual search,2024.2.1post4,59.42844102558148,2024-10-10 13h41.46.975784 +0530,
27,0,27,[-0.43666666666666665],[0.14],[1],[0],[0],[3.015287199999989],['target'],27,0,27,0,87.97495809999998,,10,87.95244189999994,87.97495809999998,87.97495809999998,0.048844000000030974,90.96877869999992,[-0.43666666666666665],[0.14],[1],[0],[0],[3.015287199999989],['target'],013905,001,2024-10-10_13h40.50.529,visual search,2024.2.1post4,59.42844102558148,2024-10-10 13h41.46.975784 +0530,
28,0,28,[0.43833333333333335],[0.17333333333333334],[1],[0],[0],[3.2483023000000912],['target'],28,0,28,0,91.05929909999998,,10,91.03389259999994,91.05929909999998,91.05929909999998,0.06447029999992537,94.28291499999989,[0.43833333333333335],[0.17333333333333334],[1],[0],[0],[3.2483023000000912],['target'],013905,001,2024-10-10_13h40.50.529,visual search,2024.2.1post4,59.42844102558148,2024-10-10 13h41.46.975784 +0530,
29,0,29,[0.4683333333333333],[-0.20666666666666667],[1],[0],[0],[1.8897680000000037],['target'],29,0,29,0,94.35452629999997,,10,94.33185379999998,94.35452629999997,94.35452629999997,0.048698399999921094,96.22248489999993,[0.4683333333333333],[-0.20666666666666667],[1],[0],[0],[1.8897680000000037],['target'],013905,001,2024-10-10_13h40.50.529,visual search,2024.2.1post4,59.42844102558148,2024-10-10 13h41.46.975784 +0530,
30,0,30,[-0.38],[-0.4216666666666667],[1],[0],[0],[3.2446469999999863],['target'],30,0,30,0,96.27397919999999,,5,96.2554361,96.27397919999999,96.27397919999999,0.03257379999990917,99.50086899999997,[-0.38],[-0.4216666666666667],[1],[0],[0],[3.2446469999999863],['target'],013905,001,2024-10-10_13h40.50.529,visual search,2024.2.1post4,59.42844102558148,2024-10-10 13h41.46.975784 +0530,
31,0,31,[0.31166666666666665],[-0.09],[1],[0],[0],[4.0626002999999855],['target'],31,0,31,0,99.57504559999995,,10,99.55377219999991,99.57504559999995,99.57504559999995,0.052604299999984505,103.61710459999995,[0.31166666666666665],[-0.09],[1],[0],[0],[4.0626002999999855],['target'],013905,001,2024-10-10_13h40.50.529,visual search,2024.2.1post4,59.42844102558148,2024-10-10 13h41.46.975784 +0530,
32,0,32,[-0.09],[0.09666666666666666],[1],[0],[0],[1.7466835000000174],['target'],32,0,32,0,103.69220639999992,,10,103.66954159999989,103.69220639999992,103.69220639999992,0.05202859999997145,105.41692899999998,[-0.09],[0.09666666666666666],[1],[0],[0],[1.7466835000000174],['target'],013905,001,2024-10-10_13h40.50.529,visual search,2024.2.1post4,59.42844102558148,2024-10-10 13h41.46.975784 +0530,
33,0,33,[-0.235],[0.0033333333333333335],[1],[0],[0],[1.9225652000000082],['target'],33,0,33,0,105.48164099999997,,10,105.46001409999997,105.48164099999997,105.48164099999997,0.0428438000000142,107.38325039999995,[-0.235],[0.0033333333333333335],[1],[0],[0],[1.9225652000000082],['target'],013905,001,2024-10-10_13h40.50.529,visual search,2024.2.1post4,59.42844102558148,2024-10-10 13h41.46.975784 +0530,
34,0,34,[0.22833333333333333],[0.33],[1],[0],[0],[1.8562653999999839],['target'],34,0,34,0,107.43164059999992,,5,107.4120152999999,107.43164059999992,107.43164059999992,0.028533100000004197,109.26911659999996,[0.22833333333333333],[0.33],[1],[0],[0],[1.8562653999999839],['target'],013905,001,2024-10-10_13h40.50.529,visual search,2024.2.1post4,59.42844102558148,2024-10-10 13h41.46.975784 +0530,
35,0,35,[-0.12833333333333333],[0.4633333333333333],[1],[0],[0],[2.263063699999975],['target'],35,0,35,0,109.30614259999993,,5,109.29104749999999,109.30614259999993,109.30614259999993,0.0217281999999841,111.55502969999998,[-0.12833333333333333],[0.4633333333333333],[1],[0],[0],[2.263063699999975],['target'],013905,001,2024-10-10_13h40.50.529,visual search,2024.2.1post4,59.42844102558148,2024-10-10 13h41.46.975784 +0530,
36,0,36,[0.255],[0.325],[1],[0],[0],[1.6285950000000184],['target'],36,0,36,0,111.64405609999994,,10,111.62160289999997,111.64405609999994,111.64405609999994,0.06624839999994947,113.25096379999991,[0.255],[0.325],[1],[0],[0],[1.6285950000000184],['target'],013905,001,2024-10-10_13h40.50.529,visual search,2024.2.1post4,59.42844102558148,2024-10-10 13h41.46.975784 +0530,
37,0,37,[0.01],[-0.4166666666666667],[1],[0],[0],[2.546715699999936],['target'],37,0,37,0,113.33562649999999,,10,113.30704629999991,113.33562649999999,113.33562649999999,0.05576640000003863,115.8545830999999,[0.01],[-0.4166666666666667],[1],[0],[0],[2.546715699999936],['target'],013905,001,2024-10-10_13h40.50.529,visual search,2024.2.1post4,59.42844102558148,2024-10-10 13h41.46.975784 +0530,
38,0,38,[-0.14666666666666667],[0.15],[1],[0],[0],[3.271788800000081],['target'],38,0,38,0,115.92062539999995,,10,115.89768049999998,115.92062539999995,115.92062539999995,0.042823199999929784,119.17038009999999,[-0.14666666666666667],[0.15],[1],[0],[0],[3.271788800000081],['target'],013905,001,2024-10-10_13h40.50.529,visual search,2024.2.1post4,59.42844102558148,2024-10-10 13h41.46.975784 +0530,
39,0,39,[0.39666666666666667],[0.015],[1],[0],[0],[2.2165436999999883],['target'],39,0,39,0,119.22139709999999,,5,119.20189429999994,119.22139709999999,119.22139709999999,0.03091479999989133,121.41922369999997,[0.39666666666666667],[0.015],[1],[0],[0],[2.2165436999999883],['target'],013905,001,2024-10-10_13h40.50.529,visual search,2024.2.1post4,59.42844102558148,2024-10-10 13h41.46.975784 +0530,
40,0,40,[-0.3933333333333333],[-0.36],[1],[0],[0],[3.5748446999999715],['target'],40,0,40,0,121.49839539999994,,10,121.47749949999991,121.49839539999994,121.49839539999994,0.05781190000004699,125.05337609999992,[-0.3933333333333333],[-0.36],[1],[0],[0],[3.5748446999999715],['target'],013905,001,2024-10-10_13h40.50.529,visual search,2024.2.1post4,59.42844102558148,2024-10-10 13h41.46.975784 +0530,
41,0,41,[-0.4533333333333333],[0.45],[1],[0],[0],[3.129635300000018],['target'],41,0,41,0,125.1054519999999,,5,125.08725809999999,125.1054519999999,125.1054519999999,0.03322519999994711,128.2175479,[-0.4533333333333333],[0.45],[1],[0],[0],[3.129635300000018],['target'],013905,001,2024-10-10_13h40.50.529,visual search,2024.2.1post4,59.42844102558148,2024-10-10 13h41.46.975784 +0530,
42,0,42,[0.35833333333333334],[-0.43666666666666665],[1],[0],[0],[2.3420442999999977],['target'],42,0,42,0,128.2552520999999,,5,128.24120499999992,128.2552520999999,128.2552520999999,0.02345629999990706,130.58401089999995,[0.35833333333333334],[-0.43666666666666665],[1],[0],[0],[2.3420442999999977],['target'],013905,001,2024-10-10_13h40.50.529,visual search,2024.2.1post4,59.42844102558148,2024-10-10 13h41.46.975784 +0530,
43,0,43,[-0.27],[-0.215],[1],[0],[0],[2.517456700000025],['target'],43,0,43,0,130.63089479999996,,5,130.6150684999999,130.63089479999996,130.63089479999996,0.030870700000036777,133.13318229999993,[-0.27],[-0.215],[1],[0],[0],[2.517456700000025],['target'],013905,001,2024-10-10_13h40.50.529,visual search,2024.2.1post4,59.42844102558148,2024-10-10 13h41.46.975784 +0530,
44,0,44,[0.056666666666666664],[-0.25833333333333336],[1],[0],[0],[2.4710685000000012],['target'],44,0,44,0,133.20085719999997,,10,133.1785218,133.20085719999997,133.20085719999997,0.04511450000006789,135.6502734999999,[0.056666666666666664],[-0.25833333333333336],[1],[0],[0],[2.4710685000000012],['target'],013905,001,2024-10-10_13h40.50.529,visual search,2024.2.1post4,59.42844102558148,2024-10-10 13h41.46.975784 +0530,
45,0,45,[-0.3383333333333333],[0.095],[1],[0],[0],[1.812280200000032],['target'],45,0,45,0,135.68652869999994,,5,135.6717445999999,135.68652869999994,135.68652869999994,0.02123170000004393,137.48484869999993,[-0.3383333333333333],[0.095],[1],[0],[0],[1.812280200000032],['target'],013905,001,2024-10-10_13h40.50.529,visual search,2024.2.1post4,59.42844102558148,2024-10-10 13h41.46.975784 +0530,
46,0,46,[0.10166666666666667],[-0.20833333333333334],[1],[0],[0],[2.9735787000000755],['target'],46,0,46,0,137.55159629999991,,10,137.5275281999999,137.55159629999991,137.55159629999991,0.042485900000087895,140.50180279999995,[0.10166666666666667],[-0.20833333333333334],[1],[0],[0],[2.9735787000000755],['target'],013905,001,2024-10-10_13h40.50.529,visual search,2024.2.1post4,59.42844102558148,2024-10-10 13h41.46.975784 +0530,
47,0,47,[-0.39],[0.41333333333333333],[1],[0],[0],[1.9950577000000749],['target'],47,0,47,0,140.53990679999993,,5,140.52431349999995,140.53990679999993,140.53990679999993,0.022271199999977398,142.52006949999998,[-0.39],[0.41333333333333333],[1],[0],[0],[1.9950577000000749],['target'],013905,001,2024-10-10_13h40.50.529,visual search,2024.2.1post4,59.42844102558148,2024-10-10 13h41.46.975784 +0530,
48,0,48,[-0.175],[-0.14833333333333334],[1],[0],[0],[1.9447631000000456],['target'],48,0,48,0,142.55759339999997,,5,142.5419824999999,142.55759339999997,142.55759339999997,0.021709800000053292,144.48770439999998,[-0.175],[-0.14833333333333334],[1],[0],[0],[1.9447631000000456],['target'],013905,001,2024-10-10_13h40.50.529,visual search,2024.2.1post4,59.42844102558148,2024-10-10 13h41.46.975784 +0530,
49,0,49,[-0.28],[-0.20666666666666667],[1],[0],[0],[3.0112367000000404],['target'],49,0,49,0,144.52495039999997,,5,144.50927839999997,144.52495039999997,144.52495039999997,0.02119819999995798,147.52130249999993,[-0.28],[-0.20666666666666667],[1],[0],[0],[3.0112367000000404],['target'],013905,001,2024-10-10_13h40.50.529,visual search,2024.2.1post4,59.42844102558148,2024-10-10 13h41.46.975784 +0530,
50,0,50,[-0.23833333333333334],[0.15166666666666667],[1],[0],[0],[1.94791459999999],['target'],50,0,50,0,147.57190689999993,,5,147.5539366999999,147.57190689999993,147.57190689999993,0.03233420000003662,149.5026388,[-0.23833333333333334],[0.15166666666666667],[1],[0],[0],[1.94791459999999],['target'],013905,001,2024-10-10_13h40.50.529,visual search,2024.2.1post4,59.42844102558148,2024-10-10 13h41.46.975784 +0530,
51,0,51,[-0.44333333333333336],[-0.31],[1],[0],[0],[1.783046000000013],['target'],51,0,51,0,149.5546243,,5,149.53469569999993,149.5546243,149.5546243,0.03174709999996139,151.31838819999996,[-0.44333333333333336],[-0.31],[1],[0],[0],[1.783046000000013],['target'],013905,001,2024-10-10_13h40.50.529,visual search,2024.2.1post4,59.42844102558148,2024-10-10 13h41.46.975784 +0530,
52,0,52,[0.445],[0.24333333333333335],[1],[0],[0],[1.6941604000001007],['target'],52,0,52,0,151.35654319999992,,5,151.34121749999997,151.35654319999992,151.35654319999992,0.022639499999968393,153.03612039999996,[0.445],[0.24333333333333335],[1],[0],[0],[1.6941604000001007],['target'],013905,001,2024-10-10_13h40.50.529,visual search,2024.2.1post4,59.42844102558148,2024-10-10 13h41.46.975784 +0530,
53,0,53,[-0.39],[0.4866666666666667],[1],[0],[0],[2.098229599999968],['target'],53,0,53,0,153.08837229999995,,5,153.0693877,153.08837229999995,153.08837229999995,0.03296899999998004,155.1682459,[-0.39],[0.4866666666666667],[1],[0],[0],[2.098229599999968],['target'],013905,001,2024-10-10_13h40.50.529,visual search,2024.2.1post4,59.42844102558148,2024-10-10 13h41.46.975784 +0530,
54,0,54,[0.4533333333333333],[0.155],[1],[0],[0],[2.061125400000037],['target'],54,0,54,0,155.20652199999995,,5,155.1911796999999,155.20652199999995,155.20652199999995,0.022744800000054965,157.25309779999998,[0.4533333333333333],[0.155],[1],[0],[0],[2.061125400000037],['target'],013905,001,2024-10-10_13h40.50.529,visual search,2024.2.1post4,59.42844102558148,2024-10-10 13h41.46.975784 +0530,
55,0,55,[0.058333333333333334],[-0.37833333333333335],[1],[0],[0],[2.2151198999999906],['target'],55,0,55,0,157.32669399999997,,10,157.3046675999999,157.32669399999997,157.32669399999997,0.05138169999997899,159.5204816999999,[0.058333333333333334],[-0.37833333333333335],[1],[0],[0],[2.2151198999999906],['target'],013905,001,2024-10-10_13h40.50.529,visual search,2024.2.1post4,59.42844102558148,2024-10-10 13h41.46.975784 +0530,
56,0,56,[-0.42],[-0.43],[1],[0],[0],[3.743817100000001],['target'],56,0,56,0,159.5608865999999,,5,159.5432219999999,159.5608865999999,159.5608865999999,0.022494299999948453,163.2878450999999,[-0.42],[-0.43],[1],[0],[0],[3.743817100000001],['target'],013905,001,2024-10-10_13h40.50.529,visual search,2024.2.1post4,59.42844102558148,2024-10-10 13h41.46.975784 +0530,
57,0,57,[0.09166666666666666],[0.045],[1],[0],[0],[1.673964700000056],['target'],57,0,57,0,163.3706246999999,,10,163.34417369999994,163.3706246999999,163.3706246999999,0.05605649999995421,165.01883729999997,[0.09166666666666666],[0.045],[1],[0],[0],[1.673964700000056],['target'],013905,001,2024-10-10_13h40.50.529,visual search,2024.2.1post4,59.42844102558148,2024-10-10 13h41.46.975784 +0530,
58,0,58,[-0.12666666666666668],[-0.09],[1],[0],[0],[2.146343799999954],['target'],58,0,58,0,165.0987882999999,,10,165.07381479999992,165.0987882999999,165.0987882999999,0.05475699999999506,167.2208126999999,[-0.12666666666666668],[-0.09],[1],[0],[0],[2.146343799999954],['target'],013905,001,2024-10-10_13h40.50.529,visual search,2024.2.1post4,59.42844102558148,2024-10-10 13h41.46.975784 +0530,
59,0,59,[-0.45666666666666667],[-0.04],[1],[0],[0],[1.7140267999999423],['target'],59,0,59,0,167.29573419999997,,10,167.27291479999997,167.29573419999997,167.29573419999997,0.05183980000003885,168.98771979999992,[-0.45666666666666667],[-0.04],[1],[0],[0],[1.7140267999999423],['target'],013905,001,2024-10-10_13h40.50.529,visual search,2024.2.1post4,59.42844102558148,2024-10-10 13h41.46.975784 +0530,
60,0,60,[0.04833333333333333],[0.2733333333333333],[1],[0],[0],[1.8826867999999877],['target'],60,0,60,0,169.06507249999993,,10,169.0392953999999,169.06507249999993,169.06507249999993,0.05125729999997475,170.92285629999992,[0.04833333333333333],[0.2733333333333333],[1],[0],[0],[1.8826867999999877],['target'],013905,001,2024-10-10_13h40.50.529,visual search,2024.2.1post4,59.42844102558148,2024-10-10 13h41.46.975784 +0530,
61,0,61,[0.29],[0.15666666666666668],[1],[0],[0],[1.7793078999999352],['target'],61,0,61,0,171.00230979999992,,10,170.97735079999995,171.00230979999992,171.00230979999992,0.05410340000003089,172.7576052999999,[0.29],[0.15666666666666668],[1],[0],[0],[1.7793078999999352],['target'],013905,001,2024-10-10_13h40.50.529,visual search,2024.2.1post4,59.42844102558148,2024-10-10 13h41.46.975784 +0530,
62,0,62,[-0.395],[-0.06833333333333333],[1],[0],[0],[1.9819569000000001],['target'],62,0,62,0,172.81316949999996,,5,172.78790479999998,172.81316949999996,172.81316949999996,0.02991959999997107,174.77088279999998,[-0.395],[-0.06833333333333333],[1],[0],[0],[1.9819569000000001],['target'],013905,001,2024-10-10_13h40.50.529,visual search,2024.2.1post4,59.42844102558148,2024-10-10 13h41.46.975784 +0530,
63,0,63,[0.18333333333333332],[0.4083333333333333],[1],[0],[0],[1.9047299000000066],['target'],63,0,63,0,174.86135319999994,,10,174.8335823,174.86135319999994,174.86135319999994,0.06238029999997252,176.73921769999993,[0.18333333333333332],[0.4083333333333333],[1],[0],[0],[1.9047299000000066],['target'],013905,001,2024-10-10_13h40.50.529,visual search,2024.2.1post4,59.42844102558148,2024-10-10 13h41.46.975784 +0530,
64,0,64,[-0.09],[0.325],[1],[0],[0],[1.9302155999999968],['target'],64,0,64,0,176.80341299999998,,5,176.778821,176.80341299999998,176.80341299999998,0.03917359999991277,178.70995249999999,[-0.09],[0.325],[1],[0],[0],[1.9302155999999968],['target'],013905,001,2024-10-10_13h40.50.529,visual search,2024.2.1post4,59.42844102558148,2024-10-10 13h41.46.975784 +0530,
65,0,65,[0.11833333333333333],[-0.1],[1],[0],[0],[1.9788583999999219],['target'],65,0,65,0,178.8065001,,10,178.77517019999993,178.8065001,178.8065001,0.06486430000006749,180.75507919999995,[0.11833333333333333],[-0.1],[1],[0],[0],[1.9788583999999219],['target'],013905,001,2024-10-10_13h40.50.529,visual search,2024.2.1post4,59.42844102558148,2024-10-10 13h41.46.975784 +0530,
66,0,66,[0.14666666666666667],[0.265],[1],[0],[0],[1.2865098999999418],['target'],66,0,66,0,180.80247789999999,,5,180.78494039999998,180.80247789999999,180.80247789999999,0.028936799999996765,182.07234169999992,[0.14666666666666667],[0.265],[1],[0],[0],[1.2865098999999418],['target'],013905,001,2024-10-10_13h40.50.529,visual search,2024.2.1post4,59.42844102558148,2024-10-10 13h41.46.975784 +0530,
67,0,67,[-0.16666666666666666],[-0.35833333333333334],[1],[0],[0],[2.254359099999988],['target'],67,0,67,0,182.12487609999994,,5,182.10027059999993,182.12487609999994,182.12487609999994,0.02770989999999074,184.35556959999997,[-0.16666666666666666],[-0.35833333333333334],[1],[0],[0],[2.254359099999988],['target'],013905,001,2024-10-10_13h40.50.529,visual search,2024.2.1post4,59.42844102558148,2024-10-10 13h41.46.975784 +0530,
68,0,68,[0.021666666666666667],[0.345],[1],[0],[0],[2.2201102999999875],['target'],68,0,68,0,184.4290443,,10,184.40401439999994,184.4290443,184.4290443,0.04822070000000167,186.62504579999995,[0.021666666666666667],[0.345],[1],[0],[0],[2.2201102999999875],['target'],013905,001,2024-10-10_13h40.50.529,visual search,2024.2.1post4,59.42844102558148,2024-10-10 13h41.46.975784 +0530,
69,0,69,[-0.4633333333333333],[0.4716666666666667],[1],[0],[0],[2.813026700000023],['target'],69,0,69,0,186.6995907999999,,10,186.67422869999996,186.6995907999999,186.6995907999999,0.04886410000005981,189.4880083999999,[-0.4633333333333333],[0.4716666666666667],[1],[0],[0],[2.813026700000023],['target'],013905,001,2024-10-10_13h40.50.529,visual search,2024.2.1post4,59.42844102558148,2024-10-10 13h41.46.975784 +0530,
70,0,70,[-0.24],[0.09166666666666666],[1],[0],[0],[1.7795777000000044],['target'],70,0,70,0,189.5652437,,10,189.5394842999999,189.5652437,189.5652437,0.05115740000007918,191.31982489999996,[-0.24],[0.09166666666666666],[1],[0],[0],[1.7795777000000044],['target'],013905,001,2024-10-10_13h40.50.529,visual search,2024.2.1post4,59.42844102558148,2024-10-10 13h41.46.975784 +0530,
71,0,71,[-0.465],[-0.17166666666666666],[1],[0],[0],[2.335574999999949],['target'],71,0,71,0,191.39772819999996,,10,191.37412239999992,191.39772819999996,191.39772819999996,0.05403990000002068,193.71051119999993,[-0.465],[-0.17166666666666666],[1],[0],[0],[2.335574999999949],['target'],013905,001,2024-10-10_13h40.50.529,visual search,2024.2.1post4,59.42844102558148,2024-10-10 13h41.46.975784 +0530,
72,0,72,[0.17666666666666667],[-0.07333333333333333],[1],[0],[0],[1.8053479000000152],['target'],72,0,72,0,193.7511836,,5,193.7334007999999,193.7511836,193.7511836,0.022626100000024962,195.53967319999992,[0.17666666666666667],[-0.07333333333333333],[1],[0],[0],[1.8053479000000152],['target'],013905,001,2024-10-10_13h40.50.529,visual search,2024.2.1post4,59.42844102558148,2024-10-10 13h41.46.975784 +0530,
73,0,73,[0.22833333333333333],[-0.2866666666666667],[1],[0],[0],[1.9018556999999419],['target'],73,0,73,0,195.61040419999995,,10,195.58541819999994,195.61040419999995,195.61040419999995,0.045461200000090685,197.48795439999992,[0.22833333333333333],[-0.2866666666666667],[1],[0],[0],[1.9018556999999419],['target'],013905,001,2024-10-10_13h40.50.529,visual search,2024.2.1post4,59.42844102558148,2024-10-10 13h41.46.975784 +0530,
74,0,74,[-0.075],[-0.25],[1],[0],[0],[2.7430573000000322],['target'],74,0,74,0,197.5351915,,5,197.5166595999999,197.5351915,197.5351915,0.02841179999995802,200.2604298,[-0.075],[-0.25],[1],[0],[0],[2.7430573000000322],['target'],013905,001,2024-10-10_13h40.50.529,visual search,2024.2.1post4,59.42844102558148,2024-10-10 13h41.46.975784 +0530,
75,0,75,[0.27],[-0.12666666666666668],[1],[0],[0],[2.2369681999999784],['target'],75,0,75,0,200.3487717999999,,10,200.3178420999999,200.3487717999999,200.3487717999999,0.057219099999997525,202.55557609999994,[0.27],[-0.12666666666666668],[1],[0],[0],[2.2369681999999784],['target'],013905,001,2024-10-10_13h40.50.529,visual search,2024.2.1post4,59.42844102558148,2024-10-10 13h41.46.975784 +0530,
76,0,76,[-0.305],[-0.3333333333333333],[1],[0],[0],[2.5175208000000566],['target'],76,0,76,0,202.6309108999999,,10,202.60609749999992,202.6309108999999,202.6309108999999,0.05027989999996407,205.12443329999996,[-0.305],[-0.3333333333333333],[1],[0],[0],[2.5175208000000566],['target'],013905,001,2024-10-10_13h40.50.529,visual search,2024.2.1post4,59.42844102558148,2024-10-10 13h41.46.975784 +0530,
77,0,77,[0.22333333333333333],[-0.4116666666666667],[1],[0],[0],[2.4044258999999784],['target'],77,0,77,0,205.1743783999999,,5,205.15177949999998,205.1743783999999,205.1743783999999,0.02706620000003568,207.55716239999992,[0.22333333333333333],[-0.4116666666666667],[1],[0],[0],[2.4044258999999784],['target'],013905,001,2024-10-10_13h40.50.529,visual search,2024.2.1post4,59.42844102558148,2024-10-10 13h41.46.975784 +0530,
78,0,78,[0.46166666666666667],[0.365],[1],[0],[0],[2.833436900000038],['target'],78,0,78,0,207.6056845999999,,5,207.58863169999995,207.6056845999999,207.6056845999999,0.031000699999935932,210.4228467999999,[0.46166666666666667],[0.365],[1],[0],[0],[2.833436900000038],['target'],013905,001,2024-10-10_13h40.50.529,visual search,2024.2.1post4,59.42844102558148,2024-10-10 13h41.46.975784 +0530,
79,0,79,[-0.135],[0.31666666666666665],[1],[0],[0],[1.8541008999999349],['target'],79,0,79,0,210.4767518,,5,210.4554162999999,210.4767518,210.4767518,0.03227930000002743,212.31037159999994,[-0.135],[0.31666666666666665],[1],[0],[0],[1.8541008999999349],['target'],013905,001,2024-10-10_13h40.50.529,visual search,2024.2.1post4,59.42844102558148,2024-10-10 13h41.46.975784 +0530,
80,0,80,[-0.05],[-0.11166666666666666],[1],[0],[0],[2.2062981000000264],['target'],80,0,80,0,212.3956483999999,,10,212.36621689999993,212.3956483999999,212.3956483999999,0.05547850000004928,214.57327859999998,[-0.05],[-0.11166666666666666],[1],[0],[0],[2.2062981000000264],['target'],013905,001,2024-10-10_13h40.50.529,visual search,2024.2.1post4,59.42844102558148,2024-10-10 13h41.46.975784 +0530,
81,0,81,[0.10833333333333334],[-0.4033333333333333],[1],[0],[0],[2.217005599999993],['target'],81,0,81,0,214.6236260999999,,5,214.60530099999994,214.6236260999999,214.6236260999999,0.03166750000002594,216.82297719999997,[0.10833333333333334],[-0.4033333333333333],[1],[0],[0],[2.217005599999993],['target'],013905,001,2024-10-10_13h40.50.529,visual search,2024.2.1post4,59.42844102558148,2024-10-10 13h41.46.975784 +0530,
82,0,82,[-0.12],[-0.23333333333333334],[1],[0],[0],[3.0293506000000434],['target'],82,0,82,0,216.86153939999997,,5,216.84572089999995,216.86153939999997,216.86153939999997,0.022551499999963198,219.8760284,[-0.12],[-0.23333333333333334],[1],[0],[0],[3.0293506000000434],['target'],013905,001,2024-10-10_13h40.50.529,visual search,2024.2.1post4,59.42844102558148,2024-10-10 13h41.46.975784 +0530,
83,0,83,[-0.2916666666666667],[0.3516666666666667],[1],[0],[0],[2.469554099999982],['target'],83,0,83,0,220.11366909999992,,10,220.0715687999999,220.11366909999992,220.11366909999992,0.19522660000006908,222.54187489999993,[-0.2916666666666667],[0.3516666666666667],[1],[0],[0],[2.469554099999982],['target'],013905,001,2024-10-10_13h40.50.529,visual search,2024.2.1post4,59.42844102558148,2024-10-10 13h41.46.975784 +0530,
84,0,84,[-0.4],[0.4666666666666667],[1],[0],[0],[2.5138485999999602],['target'],84,0,84,0,222.61261279999997,,10,222.5918360999999,222.61261279999997,222.61261279999997,0.049460899999985486,225.1064965999999,[-0.4],[0.4666666666666667],[1],[0],[0],[2.5138485999999602],['target'],013905,001,2024-10-10_13h40.50.529,visual search,2024.2.1post4,59.42844102558148,2024-10-10 13h41.46.975784 +0530,
85,0,85,[-0.25333333333333335],[0.17666666666666667],[1],[0],[0],[1.5837569999999914],['target'],85,0,85,0,225.15501069999993,,5,225.1382296999999,225.15501069999993,225.15501069999993,0.0313839000000371,226.7226829,[-0.25333333333333335],[0.17666666666666667],[1],[0],[0],[1.5837569999999914],['target'],013905,001,2024-10-10_13h40.50.529,visual search,2024.2.1post4,59.42844102558148,2024-10-10 13h41.46.975784 +0530,
86,0,86,[0.055],[0.20666666666666667],[1],[0],[0],[2.6957695999999487],['target'],86,0,86,0,226.7616541,,5,226.74473869999997,226.7616541,226.7616541,0.0218717000000197,229.4413601,[0.055],[0.20666666666666667],[1],[0],[0],[2.6957695999999487],['target'],013905,001,2024-10-10_13h40.50.529,visual search,2024.2.1post4,59.42844102558148,2024-10-10 13h41.46.975784 +0530,
87,0,87,[-0.045],[-0.08333333333333333],[1],[0],[0],[2.7326949999999215],['target'],87,0,87,0,229.51130519999992,,10,229.4903043999999,229.51130519999992,229.51130519999992,0.04846880000002329,232.2237962999999,[-0.045],[-0.08333333333333333],[1],[0],[0],[2.7326949999999215],['target'],013905,001,2024-10-10_13h40.50.529,visual search,2024.2.1post4,59.42844102558148,2024-10-10 13h41.46.975784 +0530,
88,0,88,[-0.3016666666666667],[0.24833333333333332],[1],[0],[0],[3.5450462999999672],['target'],88,0,88,0,232.2979226,,10,232.27631009999993,232.2979226,232.2979226,0.052132799999981216,235.8221092,[-0.3016666666666667],[0.24833333333333332],[1],[0],[0],[3.5450462999999672],['target'],013905,001,2024-10-10_13h40.50.529,visual search,2024.2.1post4,59.42844102558148,2024-10-10 13h41.46.975784 +0530,
89,0,89,[0.11166666666666666],[-0.24333333333333335],[1],[0],[0],[2.721704299999942],['target'],89,0,89,0,235.8690067,,5,235.8530457999999,235.8690067,235.8690067,0.03070340000010674,238.57562699999994,[0.11166666666666666],[-0.24333333333333335],[1],[0],[0],[2.721704299999942],['target'],013905,001,2024-10-10_13h40.50.529,visual search,2024.2.1post4,59.42844102558148,2024-10-10 13h41.46.975784 +0530,
90,0,90,[0.06833333333333333],[-0.32166666666666666],[1],[0],[0],[1.4815979999999627],['target'],90,0,90,0,238.6489089999999,,10,238.62403319999999,238.6489089999999,238.6489089999999,0.04804899999999179,240.10634749999997,[0.06833333333333333],[-0.32166666666666666],[1],[0],[0],[1.4815979999999627],['target'],013905,001,2024-10-10_13h40.50.529,visual search,2024.2.1post4,59.42844102558148,2024-10-10 13h41.46.975784 +0530,
91,0,91,[0.245],[0.36666666666666664],[1],[0],[0],[1.8784653000000162],['target'],91,0,91,0,240.1445819999999,,5,240.12879579999992,240.1445819999999,240.1445819999999,0.02220939999995153,242.00840819999996,[0.245],[0.36666666666666664],[1],[0],[0],[1.8784653000000162],['target'],013905,001,2024-10-10_13h40.50.529,visual search,2024.2.1post4,59.42844102558148,2024-10-10 13h41.46.975784 +0530,
92,0,92,[0.22666666666666666],[-0.31666666666666665],[1],[0],[0],[2.984037599999965],['target'],92,0,92,0,242.0604687,,5,242.04041059999997,242.0604687,242.0604687,0.03152379999994537,245.0253492999999,[0.22666666666666666],[-0.31666666666666665],[1],[0],[0],[2.984037599999965],['target'],013905,001,2024-10-10_13h40.50.529,visual search,2024.2.1post4,59.42844102558148,2024-10-10 13h41.46.975784 +0530,
93,0,93,[0.22333333333333333],[0.45666666666666667],[1],[0],[0],[3.291114900000025],['target'],93,0,93,0,245.1019326999999,,10,245.08004889999995,245.1019326999999,245.1019326999999,0.05422120000002906,248.37187369999992,[0.22333333333333333],[0.45666666666666667],[1],[0],[0],[3.291114900000025],['target'],013905,001,2024-10-10_13h40.50.529,visual search,2024.2.1post4,59.42844102558148,2024-10-10 13h41.46.975784 +0530,
94,0,94,[-0.42833333333333334],[-0.20666666666666667],[1],[0],[0],[2.963690900000074],['target'],94,0,94,0,248.41446539999993,,5,248.39468309999995,248.41446539999993,248.41446539999993,0.02258920000008402,251.3592640999999,[-0.42833333333333334],[-0.20666666666666667],[1],[0],[0],[2.963690900000074],['target'],013905,001,2024-10-10_13h40.50.529,visual search,2024.2.1post4,59.42844102558148,2024-10-10 13h41.46.975784 +0530,
95,0,95,[-0.13333333333333333],[-0.13833333333333334],[1],[0],[0],[1.9680855999999949],['target'],95,0,95,0,251.40641259999995,,5,251.39035649999994,251.40641259999995,251.40641259999995,0.03079539999998815,253.35932939999998,[-0.13333333333333333],[-0.13833333333333334],[1],[0],[0],[1.9680855999999949],['target'],013905,001,2024-10-10_13h40.50.529,visual search,2024.2.1post4,59.42844102558148,2024-10-10 13h41.46.975784 +0530,
96,0,96,[0.3283333333333333],[-0.23],[1],[0],[0],[2.6735505999999987],['target'],96,0,96,0,253.43795649999993,,10,253.41649969999992,253.43795649999993,253.43795649999993,0.05668690000004517,256.0909165999999,[0.3283333333333333],[-0.23],[1],[0],[0],[2.6735505999999987],['target'],013905,001,2024-10-10_13h40.50.529,visual search,2024.2.1post4,59.42844102558148,2024-10-10 13h41.46.975784 +0530,
97,0,97,[0.0033333333333333335],[0.40166666666666667],[1],[0],[0],[2.629923500000018],['target'],97,0,97,0,256.15212139999994,,5,256.1288318999999,256.15212139999994,256.15212139999994,0.037684899999931076,258.7596507999999,[0.0033333333333333335],[0.40166666666666667],[1],[0],[0],[2.629923500000018],['target'],013905,001,2024-10-10_13h40.50.529,visual search,2024.2.1post4,59.42844102558148,2024-10-10 13h41.46.975784 +0530,
98,0,98,[-0.4666666666666667],[-0.16],[1],[0],[0],[2.3306804000000056],['target'],98,0,98,0,258.8101051,,5,258.79046819999996,258.8101051,258.8101051,0.030520299999921008,261.1218833999999,[-0.4666666666666667],[-0.16],[1],[0],[0],[2.3306804000000056],['target'],013905,001,2024-10-10_13h40.50.529,visual search,2024.2.1post4,59.42844102558148,2024-10-10 13h41.46.975784 +0530,
99,0,99,[-0.3883333333333333],[0.12],[1],[0],[0],[2.1053382000000056],['target'],99,0,99,0,261.1894182,,10,261.16693509999993,261.1894182,261.1894182,0.044863299999974515,263.2729754999999,[-0.3883333333333333],[0.12],[1],[0],[0],[2.1053382000000056],['target'],013905,001,2024-10-10_13h40.50.529,visual search,2024.2.1post4,59.42844102558148,2024-10-10 13h41.46.975784 +0530,
100,0,100,[0.08666666666666667],[-0.09666666666666666],[1],[0],[0],[2.727202000000034],['target'],100,0,100,0,263.3111444,,5,263.2961843999999,263.3111444,263.3111444,0.022978200000011384,266.0240621999999,[0.08666666666666667],[-0.09666666666666666],[1],[0],[0],[2.727202000000034],['target'],013905,001,2024-10-10_13h40.50.529,visual search,2024.2.1post4,59.42844102558148,2024-10-10 13h41.46.975784 +0530,
101,0,101,[0.15],[0.006666666666666667],[1],[0],[0],[44.705718599999955],['target'],101,0,101,0,266.07280049999997,,5,266.0529716,266.07280049999997,266.07280049999997,0.028729799999950956,310.75937939999994,[0.15],[0.006666666666666667],[1],[0],[0],[44.705718599999955],['target'],013905,001,2024-10-10_13h40.50.529,visual search,2024.2.1post4,59.42844102558148,2024-10-10 13h41.46.975784 +0530,
102,0,102,[-0.43666666666666665],[0.315],[1],[0],[0],[2.4644669000000476],['target'],102,0,102,0,310.83323269999994,,10,310.8121708,310.83323269999994,310.83323269999994,0.05259599999999409,313.2774483999999,[-0.43666666666666665],[0.315],[1],[0],[0],[2.4644669000000476],['target'],013905,001,2024-10-10_13h40.50.529,visual search,2024.2.1post4,59.42844102558148,2024-10-10 13h41.46.975784 +0530,
103,0,103,[0.3566666666666667],[-0.4166666666666667],[1],[0],[0],[2.7991524000000254],['target'],103,0,103,0,313.3261359999999,,5,313.3097151999999,313.3261359999999,313.3261359999999,0.03164459999993596,316.1095767999999,[0.3566666666666667],[-0.4166666666666667],[1],[0],[0],[2.7991524000000254],['target'],013905,001,2024-10-10_13h40.50.529,visual search,2024.2.1post4,59.42844102558148,2024-10-10 13h41.46.975784 +0530,
104,0,104,[0.065],[-0.22833333333333333],[1],[0],[0],[1.643103999999994],['target'],104,0,104,0,316.1481349999999,,5,316.1327111999999,316.1481349999999,316.1481349999999,0.022949299999936557,317.77817759999994,[0.065],[-0.22833333333333333],[1],[0],[0],[1.643103999999994],['target'],013905,001,2024-10-10_13h40.50.529,visual search,2024.2.1post4,59.42844102558148,2024-10-10 13h41.46.975784 +0530,
105,0,105,[0.085],[0.11833333333333333],[1],[0],[0],[1.7944502000000284],['target'],105,0,105,0,317.8543158,,10,317.8321107999999,317.8543158,317.8543158,0.05350269999996726,319.62742019999996,[0.085],[0.11833333333333333],[1],[0],[0],[1.7944502000000284],['target'],013905,001,2024-10-10_13h40.50.529,visual search,2024.2.1post4,59.42844102558148,2024-10-10 13h41.46.975784 +0530,
106,0,106,[0.2733333333333333],[-0.465],[1],[0],[0],[4.507776499999977],['target'],106,0,106,0,319.7063668999999,,10,319.6850866,319.7063668999999,319.7063668999999,0.057242500000029395,324.19363539999995,[0.2733333333333333],[-0.465],[1],[0],[0],[4.507776499999977],['target'],013905,001,2024-10-10_13h40.50.529,visual search,2024.2.1post4,59.42844102558148,2024-10-10 13h41.46.975784 +0530,
107,0,107,[0.41333333333333333],[0.475],[1],[0],[0],[2.9193299999999454],['target'],107,0,107,0,324.24497039999994,,5,324.22487579999995,324.24497039999994,324.24497039999994,0.030889199999933226,327.14744329999996,[0.41333333333333333],[0.475],[1],[0],[0],[2.9193299999999454],['target'],013905,001,2024-10-10_13h40.50.529,visual search,2024.2.1post4,59.42844102558148,2024-10-10 13h41.46.975784 +0530,
108,0,108,[-0.041666666666666664],[0.37166666666666665],[1],[0],[0],[6.851227599999902],['target'],108,0,108,0,327.1956871,,5,327.1762106,327.1956871,327.1956871,0.028536799999983486,334.0281862999999,[-0.041666666666666664],[0.37166666666666665],[1],[0],[0],[6.851227599999902],['target'],013905,001,2024-10-10_13h40.50.529,visual search,2024.2.1post4,59.42844102558148,2024-10-10 13h41.46.975784 +0530,
109,0,109,[0.345],[-0.018333333333333333],[1],[0],[0],[3.0268221999999696],['target'],109,0,109,0,334.1064796999999,,10,334.08391989999996,334.1064796999999,334.1064796999999,0.05529469999999037,337.1115486,[0.345],[-0.018333333333333333],[1],[0],[0],[3.0268221999999696],['target'],013905,001,2024-10-10_13h40.50.529,visual search,2024.2.1post4,59.42844102558148,2024-10-10 13h41.46.975784 +0530,
110,0,110,[0.3433333333333333],[-0.38666666666666666],[1],[0],[0],[2.500824899999998],['target'],110,0,110,0,337.16233009999996,,5,337.1425317999999,337.16233009999996,337.16233009999996,0.030459100000030048,339.64413349999995,[0.3433333333333333],[-0.38666666666666666],[1],[0],[0],[2.500824899999998],['target'],013905,001,2024-10-10_13h40.50.529,visual search,2024.2.1post4,59.42844102558148,2024-10-10 13h41.46.975784 +0530,
111,0,111,[-0.36833333333333335],[0.13666666666666666],[1],[0],[0],[1.9419516000000385],['target'],111,0,111,0,339.68326709999997,,5,339.66781449999996,339.68326709999997,339.68326709999997,0.023498700000004646,341.61057389999996,[-0.36833333333333335],[0.13666666666666666],[1],[0],[0],[1.9419516000000385],['target'],013905,001,2024-10-10_13h40.50.529,visual search,2024.2.1post4,59.42844102558148,2024-10-10 13h41.46.975784 +0530,
112,0,112,[-0.4816666666666667],[-0.24666666666666667],[1],[0],[0],[2.01533100000006],['target'],112,0,112,0,341.6819830999999,,10,341.66042289999996,341.6819830999999,341.6819830999999,0.049563400000010915,343.6764648999999,[-0.4816666666666667],[-0.24666666666666667],[1],[0],[0],[2.01533100000006],['target'],013905,001,2024-10-10_13h40.50.529,visual search,2024.2.1post4,59.42844102558148,2024-10-10 13h41.46.975784 +0530,
113,0,113,[-0.03],[0.12],[1],[0],[0],[1.8117254000000003],['target'],113,0,113,0,343.71403839999994,,5,343.69876739999995,343.71403839999994,343.71403839999994,0.022068999999987682,345.51125119999995,[-0.03],[0.12],[1],[0],[0],[1.8117254000000003],['target'],013905,001,2024-10-10_13h40.50.529,visual search,2024.2.1post4,59.42844102558148,2024-10-10 13h41.46.975784 +0530,
114,0,114,[-0.19],[-0.09666666666666666],[1],[0],[0],[1.5825138999999808],['target'],114,0,114,0,345.54968109999993,,5,345.53380029999994,345.54968109999993,345.54968109999993,0.022364200000083656,347.1170717,[-0.19],[-0.09666666666666666],[1],[0],[0],[1.5825138999999808],['target'],013905,001,2024-10-10_13h40.50.529,visual search,2024.2.1post4,59.42844102558148,2024-10-10 13h41.46.975784 +0530,
115,0,115,[-0.105],[0.455],[1],[0],[0],[6.002331199999958],['target'],115,0,115,0,347.1962441999999,,10,347.17366749999997,347.1962441999999,347.1962441999999,0.05625079999992977,353.1767600999999,[-0.105],[0.455],[1],[0],[0],[6.002331199999958],['target'],013905,001,2024-10-10_13h40.50.529,visual search,2024.2.1post4,59.42844102558148,2024-10-10 13h41.46.975784 +0530,
116,0,116,[-0.275],[0.035],[1],[0],[0],[6.402308299999959],['target'],116,0,116,0,353.2497105,,10,353.22859759999994,353.2497105,353.2497105,0.051602900000034424,359.63194969999995,[-0.275],[0.035],[1],[0],[0],[6.402308299999959],['target'],013905,001,2024-10-10_13h40.50.529,visual search,2024.2.1post4,59.42844102558148,2024-10-10 13h41.46.975784 +0530,
117,0,117,[-0.11],[-0.32666666666666666],[1],[0],[0],[2.921886299999983],['target'],117,0,117,0,359.6961632,,10,359.674538,359.6961632,359.6961632,0.041879999999991924,362.5973128999999,[-0.11],[-0.32666666666666666],[1],[0],[0],[2.921886299999983],['target'],013905,001,2024-10-10_13h40.50.529,visual search,2024.2.1post4,59.42844102558148,2024-10-10 13h41.46.975784 +0530,
118,0,118,[0.025],[0.04],[1],[0],[0],[2.4087061000000176],['target'],118,0,118,0,362.67280529999994,,10,362.65138279999996,362.67280529999994,362.67280529999994,0.05348489999994399,365.0608282999999,[0.025],[0.04],[1],[0],[0],[2.4087061000000176],['target'],013905,001,2024-10-10_13h40.50.529,visual search,2024.2.1post4,59.42844102558148,2024-10-10 13h41.46.975784 +0530,
119,0,119,[0.33666666666666667],[-0.31333333333333335],[1],[0],[0],[2.0567422999999962],['target'],119,0,119,0,365.10683599999993,,5,365.0910517,365.10683599999993,365.10683599999993,0.030010199999992437,367.1488278999999,[0.33666666666666667],[-0.31333333333333335],[1],[0],[0],[2.0567422999999962],['target'],013905,001,2024-10-10_13h40.50.529,visual search,2024.2.1post4,59.42844102558148,2024-10-10 13h41.46.975784 +0530,
120,0,120,[0.15333333333333332],[-0.008333333333333333],[1],[0],[0],[1.3888405999999804],['target'],120,0,120,0,367.2263307999999,,10,367.20464979999997,367.2263307999999,367.2263307999999,0.055357099999923776,368.5941971,[0.15333333333333332],[-0.008333333333333333],[1],[0],[0],[1.3888405999999804],['target'],013905,001,2024-10-10_13h40.50.529,visual search,2024.2.1post4,59.42844102558148,2024-10-10 13h41.46.975784 +0530,
121,0,121,[0.04666666666666667],[0.04],[1],[0],[0],[3.2163658999999143],['target'],121,0,121,0,368.6678171,,10,368.6464461999999,368.6678171,368.6678171,0.05200590000004013,371.86383609999996,[0.04666666666666667],[0.04],[1],[0],[0],[3.2163658999999143],['target'],013905,001,2024-10-10_13h40.50.529,visual search,2024.2.1post4,59.42844102558148,2024-10-10 13h41.46.975784 +0530,
122,0,122,[0.46],[-0.38333333333333336],[1],[0],[0],[4.166535700000054],['target'],122,0,122,0,371.9176445999999,,5,371.8967187999999,371.9176445999999,371.9176445999999,0.032257899999990514,376.0640315999999,[0.46],[-0.38333333333333336],[1],[0],[0],[4.166535700000054],['target'],013905,001,2024-10-10_13h40.50.529,visual search,2024.2.1post4,59.42844102558148,2024-10-10 13h41.46.975784 +0530,
123,0,123,[-0.11666666666666667],[0.255],[1],[0],[0],[3.5153007000000116],['target'],123,0,123,0,376.1144475,,5,376.0959552999999,376.1144475,376.1144475,0.03159799999991719,379.61215419999996,[-0.11666666666666667],[0.255],[1],[0],[0],[3.5153007000000116],['target'],013905,001,2024-10-10_13h40.50.529,visual search,2024.2.1post4,59.42844102558148,2024-10-10 13h41.46.975784 +0530,
124,0,124,[0.16666666666666666],[-0.14333333333333334],[1],[0],[0],[11.122067600000037],['target'],124,0,124,0,379.66607609999994,,5,379.6424628,379.66607609999994,379.66607609999994,0.029924800000003415,390.76537429999996,[0.16666666666666666],[-0.14333333333333334],[1],[0],[0],[11.122067600000037],['target'],013905,001,2024-10-10_13h40.50.529,visual search,2024.2.1post4,59.42844102558148,2024-10-10 13h41.46.975784 +0530,
125,0,125,[0.43166666666666664],[0.13666666666666666],[1],[0],[0],[1.7957924999999477],['target'],125,0,125,0,390.8187514,,5,390.80225199999995,390.8187514,390.8187514,0.03661609999994653,392.5990018,[0.43166666666666664],[0.13666666666666666],[1],[0],[0],[1.7957924999999477],['target'],013905,001,2024-10-10_13h40.50.529,visual search,2024.2.1post4,59.42844102558148,2024-10-10 13h41.46.975784 +0530,
126,0,126,[-0.38666666666666666],[0.3],[1],[0],[0],[1.8101758999999902],['target'],126,0,126,0,392.6601996999999,,5,392.63645929999996,392.6601996999999,392.6601996999999,0.03710000000000946,394.44737539999994,[-0.38666666666666666],[0.3],[1],[0],[0],[1.8101758999999902],['target'],013905,001,2024-10-10_13h40.50.529,visual search,2024.2.1post4,59.42844102558148,2024-10-10 13h41.46.975784 +0530,
127,0,127,[0.375],[-0.3433333333333333],[1],[0],[0],[2.4083805999999868],['target'],127,0,127,0,394.4860087999999,,5,394.47025659999997,394.4860087999999,394.4860087999999,0.022728499999971064,396.8795034,[0.375],[-0.3433333333333333],[1],[0],[0],[2.4083805999999868],['target'],013905,001,2024-10-10_13h40.50.529,visual search,2024.2.1post4,59.42844102558148,2024-10-10 13h41.46.975784 +0530,
128,0,128,[-0.275],[-0.2733333333333333],[1],[0],[0],[2.0281212999999525],['target'],128,0,128,0,396.95463559999996,,10,396.93302659999995,396.95463559999996,396.95463559999996,0.05333680000001095,398.9618460999999,[-0.275],[-0.2733333333333333],[1],[0],[0],[2.0281212999999525],['target'],013905,001,2024-10-10_13h40.50.529,visual search,2024.2.1post4,59.42844102558148,2024-10-10 13h41.46.975784 +0530,
129,0,129,[-0.43666666666666665],[0.005],[1],[0],[0],[2.206213600000069],['target'],129,0,129,0,399.0283712999999,,10,399.0070950999999,399.0283712999999,399.0283712999999,0.045006800000010116,401.2141178999999,[-0.43666666666666665],[0.005],[1],[0],[0],[2.206213600000069],['target'],013905,001,2024-10-10_13h40.50.529,visual search,2024.2.1post4,59.42844102558148,2024-10-10 13h41.46.975784 +0530,
130,0,130,[0.24],[0.435],[1],[0],[0],[12.498249699999974],['target'],130,0,130,0,401.2600772999999,,5,401.2424666999999,401.2600772999999,401.2600772999999,0.027948499999979504,413.7418588999999,[0.24],[0.435],[1],[0],[0],[12.498249699999974],['target'],013905,001,2024-10-10_13h40.50.529,visual search,2024.2.1post4,59.42844102558148,2024-10-10 13h41.46.975784 +0530,
131,0,131,[0.325],[-0.4266666666666667],[1],[0],[0],[3.2724527999999964],['target'],131,0,131,0,413.8746483,,10,413.8249599999999,413.8746483,413.8746483,0.0827475000000959,417.0981800999999,[0.325],[-0.4266666666666667],[1],[0],[0],[3.2724527999999964],['target'],013905,001,2024-10-10_13h40.50.529,visual search,2024.2.1post4,59.42844102558148,2024-10-10 13h41.46.975784 +0530,
132,0,132,[-0.10333333333333333],[-0.28],[1],[0],[0],[2.5846602000000303],['target'],132,0,132,0,417.1509976,,5,417.1286715,417.1509976,417.1509976,0.03014619999999013,419.71409329999994,[-0.10333333333333333],[-0.28],[1],[0],[0],[2.5846602000000303],['target'],013905,001,2024-10-10_13h40.50.529,visual search,2024.2.1post4,59.42844102558148,2024-10-10 13h41.46.975784 +0530,
133,0,133,[0.23],[-0.27166666666666667],[1],[0],[0],[2.345536999999922],['target'],133,0,133,0,419.8087604,,10,419.7742778999999,419.8087604,419.8087604,0.059946899999999914,422.1207145999999,[0.23],[-0.27166666666666667],[1],[0],[0],[2.345536999999922],['target'],013905,001,2024-10-10_13h40.50.529,visual search,2024.2.1post4,59.42844102558148,2024-10-10 13h41.46.975784 +0530,
134,0,134,[0.22166666666666668],[0.425],[1],[0],[0],[1.499635699999999],['target'],134,0,134,0,422.2408069999999,,10,422.19892819999995,422.2408069999999,422.2408069999999,0.07779179999999997,423.6998016,[0.22166666666666668],[0.425],[1],[0],[0],[1.499635699999999],['target'],013905,001,2024-10-10_13h40.50.529,visual search,2024.2.1post4,59.42844102558148,2024-10-10 13h41.46.975784 +0530,
135,0,135,[0.085],[-0.24833333333333332],[1],[0],[0],[2.565432200000032],['target'],135,0,135,0,423.75585419999993,,5,423.73421369999994,423.75585419999993,423.75585419999993,0.0340232000000924,426.3004742999999,[0.085],[-0.24833333333333332],[1],[0],[0],[2.565432200000032],['target'],013905,001,2024-10-10_13h40.50.529,visual search,2024.2.1post4,59.42844102558148,2024-10-10 13h41.46.975784 +0530,
136,0,136,[-0.041666666666666664],[0.15833333333333333],[1],[0],[0],[1.656220600000097],['target'],136,0,136,0,426.39376689999995,,10,426.3585627,426.39376689999995,426.39376689999995,0.05781360000003133,428.01558539999996,[-0.041666666666666664],[0.15833333333333333],[1],[0],[0],[1.656220600000097],['target'],013905,001,2024-10-10_13h40.50.529,visual search,2024.2.1post4,59.42844102558148,2024-10-10 13h41.46.975784 +0530,
137,0,137,[-0.48],[-0.05],[1],[0],[0],[1.7771778999999697],['target'],137,0,137,0,428.0795774999999,,5,428.0553779999999,428.0795774999999,428.0795774999999,0.039445599999908154,429.8336880999999,[-0.48],[-0.05],[1],[0],[0],[1.7771778999999697],['target'],013905,001,2024-10-10_13h40.50.529,visual search,2024.2.1post4,59.42844102558148,2024-10-10 13h41.46.975784 +0530,
138,0,138,[-0.075],[-0.31166666666666665],[1],[0],[0],[2.883337200000028],['target'],138,0,138,0,429.93484149999995,,10,429.90310139999997,429.93484149999995,429.93484149999995,0.06904250000002321,432.78733149999994,[-0.075],[-0.31166666666666665],[1],[0],[0],[2.883337200000028],['target'],013905,001,2024-10-10_13h40.50.529,visual search,2024.2.1post4,59.42844102558148,2024-10-10 13h41.46.975784 +0530,
139,0,139,[0.2783333333333333],[0.485],[1],[0],[0],[2.5077347000000145],[None],139,0,139,0,432.85480099999995,,5,432.8268664,432.85480099999995,432.85480099999995,0.03914120000001731,435.3356619,[0.2783333333333333],[0.485],[1],[0],[0],[2.5077347000000145],[None],013905,001,2024-10-10_13h40.50.529,visual search,2024.2.1post4,59.42844102558148,2024-10-10 13h41.46.975784 +0530,
140,0,140,[0.018333333333333333],[-0.39],[1],[0],[0],[2.3375785000000633],['target'],140,0,140,0,435.4494064999999,,10,435.4140064999999,435.4494064999999,435.4494064999999,0.07794330000001537,437.7526524,[0.018333333333333333],[-0.39],[1],[0],[0],[2.3375785000000633],['target'],013905,001,2024-10-10_13h40.50.529,visual search,2024.2.1post4,59.42844102558148,2024-10-10 13h41.46.975784 +0530,
141,0,141,[0.195],[-0.23333333333333334],[1],[0],[0],[1.6807859000000462],['target'],141,0,141,0,437.8783649999999,,10,437.8355332,437.8783649999999,437.8783649999999,0.08235839999997552,439.517206,[0.195],[-0.23333333333333334],[1],[0],[0],[1.6807859000000462],['target'],013905,001,2024-10-10_13h40.50.529,visual search,2024.2.1post4,59.42844102558148,2024-10-10 13h41.46.975784 +0530,
142,0,142,[0.44166666666666665],[-0.06833333333333333],[1],[0],[0],[1.978636300000062],['target'],142,0,142,0,439.62188779999997,,10,439.5848355999999,439.62188779999997,439.62188779999997,0.0671649000000798,441.564266,[0.44166666666666665],[-0.06833333333333333],[1],[0],[0],[1.978636300000062],['target'],013905,001,2024-10-10_13h40.50.529,visual search,2024.2.1post4,59.42844102558148,2024-10-10 13h41.46.975784 +0530,
143,0,143,[-0.3016666666666667],[-0.335],[1],[0],[0],[5.366847399999983],['target'],143,0,143,0,441.63763859999995,,10,441.6157839,441.63763859999995,441.63763859999995,0.05116140000006908,446.9837746999999,[-0.3016666666666667],[-0.335],[1],[0],[0],[5.366847399999983],['target'],013905,001,2024-10-10_13h40.50.529,visual search,2024.2.1post4,59.42844102558148,2024-10-10 13h41.46.975784 +0530,
144,0,144,[0.14333333333333334],[0.2816666666666667],[1],[0],[0],[1.9155607000000145],['target'],144,0,144,0,447.03839519999997,,5,447.01560689999997,447.03839519999997,447.03839519999997,0.031222500000012587,448.93195919999994,[0.14333333333333334],[0.2816666666666667],[1],[0],[0],[1.9155607000000145],['target'],013905,001,2024-10-10_13h40.50.529,visual search,2024.2.1post4,59.42844102558148,2024-10-10 13h41.46.975784 +0530,
145,0,145,[-0.255],[0.03166666666666667],[1],[0],[0],[2.4941623999999365],['target'],145,0,145,0,449.0083643999999,,10,448.9871879,449.0083643999999,449.0083643999999,0.054882000000020525,451.48208809999994,[-0.255],[0.03166666666666667],[1],[0],[0],[2.4941623999999365],['target'],013905,001,2024-10-10_13h40.50.529,visual search,2024.2.1post4,59.42844102558148,2024-10-10 13h41.46.975784 +0530,
146,0,146,[0.31333333333333335],[-0.3233333333333333],[1],[0],[0],[2.7837915000000066],['target'],146,0,146,0,451.55327379999994,,10,451.5312775,451.55327379999994,451.55327379999994,0.048929400000019996,454.3158441999999,[0.31333333333333335],[-0.3233333333333333],[1],[0],[0],[2.7837915000000066],['target'],013905,001,2024-10-10_13h40.50.529,visual search,2024.2.1post4,59.42844102558148,2024-10-10 13h41.46.975784 +0530,
147,0,147,[-0.49333333333333335],[0.09],[1],[0],[0],[2.0200176999999258],['target'],147,0,147,0,454.3615145,,5,454.34602359999997,454.3615145,454.3615145,0.029810900000029505,456.3670036,[-0.49333333333333335],[0.09],[1],[0],[0],[2.0200176999999258],['target'],013905,001,2024-10-10_13h40.50.529,visual search,2024.2.1post4,59.42844102558148,2024-10-10 13h41.46.975784 +0530,
148,0,148,[0.15],[0.12333333333333334],[1],[0],[0],[1.925994400000036],['target'],148,0,148,0,456.4450532999999,,10,456.423235,456.4450532999999,456.4450532999999,0.05594110000004093,458.35000819999993,[0.15],[0.12333333333333334],[1],[0],[0],[1.925994400000036],['target'],013905,001,2024-10-10_13h40.50.529,visual search,2024.2.1post4,59.42844102558148,2024-10-10 13h41.46.975784 +0530,
149,0,149,[-0.045],[0.415],[1],[0],[0],[1.985219700000016],['target'],149,0,149,0,458.4396459999999,,10,458.4143661999999,458.4396459999999,458.4396459999999,0.0638407000000143,460.4006572999999,[-0.045],[0.415],[1],[0],[0],[1.985219700000016],['target'],013905,001,2024-10-10_13h40.50.529,visual search,2024.2.1post4,59.42844102558148,2024-10-10 13h41.46.975784 +0530,
150,0,150,[0.21166666666666667],[0.4116666666666667],[1],[0],[0],[2.14705170000002],['target'],150,0,150,0,460.4484728,,5,460.4324805,460.4484728,460.4484728,0.0312268000000131,462.58023019999996,[0.21166666666666667],[0.4116666666666667],[1],[0],[0],[2.14705170000002],['target'],013905,001,2024-10-10_13h40.50.529,visual search,2024.2.1post4,59.42844102558148,2024-10-10 13h41.46.975784 +0530,
151,0,151,[-0.14166666666666666],[-0.46166666666666667],[1],[0],[0],[5.1150135999999975],['target'],151,0,151,0,462.653825,,10,462.6324264,462.653825,462.653825,0.05201190000002498,467.7481055999999,[-0.14166666666666666],[-0.46166666666666667],[1],[0],[0],[5.1150135999999975],['target'],013905,001,2024-10-10_13h40.50.529,visual search,2024.2.1post4,59.42844102558148,2024-10-10 13h41.46.975784 +0530,
152,0,152,[0.03],[-0.42],[1],[0],[0],[1.7169589999999744],['target'],152,0,152,0,467.82278959999996,,10,467.7996242999999,467.82278959999996,467.82278959999996,0.05129069999998137,469.5174138,[0.03],[-0.42],[1],[0],[0],[1.7169589999999744],['target'],013905,001,2024-10-10_13h40.50.529,visual search,2024.2.1post4,59.42844102558148,2024-10-10 13h41.46.975784 +0530,
153,0,153,[-0.11666666666666667],[-0.12833333333333333],[1],[0],[0],[1.804893800000059],['target'],153,0,153,0,469.56713519999994,,5,469.54765139999995,469.56713519999994,469.56713519999994,0.029779299999972864,471.353571,[-0.11666666666666667],[-0.12833333333333333],[1],[0],[0],[1.804893800000059],['target'],013905,001,2024-10-10_13h40.50.529,visual search,2024.2.1post4,59.42844102558148,2024-10-10 13h41.46.975784 +0530,
154,0,154,[-0.41833333333333333],[0.24666666666666667],[1],[0],[0],[5.020721900000012],['target'],154,0,154,0,471.4213295999999,,5,471.39534189999995,471.4213295999999,471.4213295999999,0.04139850000001388,476.4167726999999,[-0.41833333333333333],[0.24666666666666667],[1],[0],[0],[5.020721900000012],['target'],013905,001,2024-10-10_13h40.50.529,visual search,2024.2.1post4,59.42844102558148,2024-10-10 13h41.46.975784 +0530,
155,0,155,[-0.4583333333333333],[0.08],[1],[0],[0],[1.9882853000000296],['target'],155,0,155,0,476.45706129999996,,5,476.4418070999999,476.45706129999996,476.45706129999996,0.024832100000026003,478.4307748,[-0.4583333333333333],[0.08],[1],[0],[0],[1.9882853000000296],['target'],013905,001,2024-10-10_13h40.50.529,visual search,2024.2.1post4,59.42844102558148,2024-10-10 13h41.46.975784 +0530,
156,0,156,[-0.015],[0.041666666666666664],[1],[0],[0],[4.626803799999948],['target'],156,0,156,0,478.4966361999999,,10,478.4738999,478.4966361999999,478.4966361999999,0.04294249999998101,483.1015351,[-0.015],[0.041666666666666664],[1],[0],[0],[4.626803799999948],['target'],013905,001,2024-10-10_13h40.50.529,visual search,2024.2.1post4,59.42844102558148,2024-10-10 13h41.46.975784 +0530,
157,0,157,[-0.21666666666666667],[0.19],[1],[0],[0],[2.5221198000000413],['target'],157,0,157,0,483.1842597,,10,483.1598777999999,483.1842597,483.1842597,0.057872099999940474,485.68266819999997,[-0.21666666666666667],[0.19],[1],[0],[0],[2.5221198000000413],['target'],013905,001,2024-10-10_13h40.50.529,visual search,2024.2.1post4,59.42844102558148,2024-10-10 13h41.46.975784 +0530,
158,0,158,[-0.12],[-0.175],[1],[0],[0],[2.170842000000107],['target'],158,0,158,0,485.7310505999999,,5,485.71082119999994,485.7310505999999,485.7310505999999,0.027926200000024437,487.88243149999994,[-0.12],[-0.175],[1],[0],[0],[2.170842000000107],['target'],013905,001,2024-10-10_13h40.50.529,visual search,2024.2.1post4,59.42844102558148,2024-10-10 13h41.46.975784 +0530,
159,0,159,[-0.18833333333333332],[-0.005],[1],[0],[0],[1.3188235000000077],['target'],159,0,159,0,487.928775,,5,487.9132590999999,487.928775,487.928775,0.03065609999998742,489.232889,[-0.18833333333333332],[-0.005],[1],[0],[0],[1.3188235000000077],['target'],013905,001,2024-10-10_13h40.50.529,visual search,2024.2.1post4,59.42844102558148,2024-10-10 13h41.46.975784 +0530,
160,0,160,[0.25333333333333335],[0.17],[1],[0],[0],[2.1674690999999484],['target'],160,0,160,0,489.2902828,,5,489.2662094,489.2902828,489.2902828,0.03309129999991001,491.4344797,[0.25333333333333335],[0.17],[1],[0],[0],[2.1674690999999484],['target'],013905,001,2024-10-10_13h40.50.529,visual search,2024.2.1post4,59.42844102558148,2024-10-10 13h41.46.975784 +0530,
161,0,161,[0.2916666666666667],[-0.03166666666666667],[1],[0],[0],[2.007558700000004],['target'],161,0,161,0,491.5222558999999,,10,491.4947797,491.5222558999999,491.5222558999999,0.060096100000009756,493.5036803999999,[0.2916666666666667],[-0.03166666666666667],[1],[0],[0],[2.007558700000004],['target'],013905,001,2024-10-10_13h40.50.529,visual search,2024.2.1post4,59.42844102558148,2024-10-10 13h41.46.975784 +0530,
162,0,162,[-0.06833333333333333],[-0.09666666666666666],[1],[0],[0],[2.061198099999956],['target'],162,0,162,0,493.5641536999999,,5,493.54145059999996,493.5641536999999,493.5641536999999,0.037317799999982526,495.60383719999993,[-0.06833333333333333],[-0.09666666666666666],[1],[0],[0],[2.061198099999956],['target'],013905,001,2024-10-10_13h40.50.529,visual search,2024.2.1post4,59.42844102558148,2024-10-10 13h41.46.975784 +0530,
163,0,163,[0.335],[-0.24166666666666667],[1],[0],[0],[2.148832500000026],['target'],163,0,163,0,495.69769469999994,,10,495.6699768,495.69769469999994,495.69769469999994,0.06580799999994724,497.8197872999999,[0.335],[-0.24166666666666667],[1],[0],[0],[2.148832500000026],['target'],013905,001,2024-10-10_13h40.50.529,visual search,2024.2.1post4,59.42844102558148,2024-10-10 13h41.46.975784 +0530,
164,0,164,[-0.03666666666666667],[0.33666666666666667],[1],[0],[0],[2.9652664999999843],['target'],164,0,164,0,497.8926292,,10,497.86947609999993,497.8926292,497.8926292,0.049212099999977,500.83578939999984,[-0.03666666666666667],[0.33666666666666667],[1],[0],[0],[2.9652664999999843],['target'],013905,001,2024-10-10_13h40.50.529,visual search,2024.2.1post4,59.42844102558148,2024-10-10 13h41.46.975784 +0530,
165,0,165,[0.23833333333333334],[0.385],[1],[0],[0],[1.7214265000000069],['target'],165,0,165,0,500.89944879999985,,5,500.87878839999985,500.89944879999985,500.89944879999985,0.04234220000012101,502.60102200000006,[0.23833333333333334],[0.385],[1],[0],[0],[1.7214265000000069],['target'],013905,001,2024-10-10_13h40.50.529,visual search,2024.2.1post4,59.42844102558148,2024-10-10 13h41.46.975784 +0530,
166,0,166,[0.38],[0.26166666666666666],[1],[0],[0],[1.6598050000000057],['target'],166,0,166,0,502.65677459999984,,5,502.63981509999985,502.65677459999984,502.65677459999984,0.038510399999950096,504.30057669999997,[0.38],[0.26166666666666666],[1],[0],[0],[1.6598050000000057],['target'],013905,001,2024-10-10_13h40.50.529,visual search,2024.2.1post4,59.42844102558148,2024-10-10 13h41.46.975784 +0530,
167,0,167,[-0.05],[-0.11666666666666667],[1],[0],[0],[2.321738699999969],['target'],167,0,167,0,504.38349619999985,,10,504.3630048,504.38349619999985,504.38349619999985,0.06208300000002964,506.6857671,[-0.05],[-0.11666666666666667],[1],[0],[0],[2.321738699999969],['target'],013905,001,2024-10-10_13h40.50.529,visual search,2024.2.1post4,59.42844102558148,2024-10-10 13h41.46.975784 +0530,
168,0,168,[0.44166666666666665],[0.13333333333333333],[1],[0],[0],[1.8644292999999834],['target'],168,0,168,0,506.7349486999999,,5,506.7169807999999,506.7349486999999,506.7349486999999,0.030854800000042815,508.5821355999999,[0.44166666666666665],[0.13333333333333333],[1],[0],[0],[1.8644292999999834],['target'],013905,001,2024-10-10_13h40.50.529,visual search,2024.2.1post4,59.42844102558148,2024-10-10 13h41.46.975784 +0530,
169,0,169,[0.34],[-0.4266666666666667],[1],[0],[0],[2.1123958000000584],['target'],169,0,169,0,508.62088819999985,,5,508.60453719999987,508.62088819999985,508.62088819999985,0.022222499999998035,510.7177437999999,[0.34],[-0.4266666666666667],[1],[0],[0],[2.1123958000000584],['target'],013905,001,2024-10-10_13h40.50.529,visual search,2024.2.1post4,59.42844102558148,2024-10-10 13h41.46.975784 +0530,
170,0,170,[-0.17],[-0.2916666666666667],[1],[0],[0],[2.0506937000000107],['target'],170,0,170,0,510.78975049999985,,10,510.7676595999999,510.78975049999985,510.78975049999985,0.04962870000008479,512.8191844999999,[-0.17],[-0.2916666666666667],[1],[0],[0],[2.0506937000000107],['target'],013905,001,2024-10-10_13h40.50.529,visual search,2024.2.1post4,59.42844102558148,2024-10-10 13h41.46.975784 +0530,
171,0,171,[-0.505],[0.1],[1],[0],[0],[2.169706700000006],['target'],171,0,171,0,512.8665315999999,,5,512.8485137999999,512.8665315999999,512.8665315999999,0.028910399999858782,515.0189235999999,[-0.505],[0.1],[1],[0],[0],[2.169706700000006],['target'],013905,001,2024-10-10_13h40.50.529,visual search,2024.2.1post4,59.42844102558148,2024-10-10 13h41.46.975784 +0530,
172,0,172,[0.06666666666666667],[-0.4583333333333333],[1],[0],[0],[2.192914900000005],['target'],172,0,172,0,515.0831590999999,,10,515.0610690999999,515.0831590999999,515.0831590999999,0.04177079999999478,517.2549862999999,[0.06666666666666667],[-0.4583333333333333],[1],[0],[0],[2.192914900000005],['target'],013905,001,2024-10-10_13h40.50.529,visual search,2024.2.1post4,59.42844102558148,2024-10-10 13h41.46.975784 +0530,
173,0,173,[-0.42333333333333334],[0.4116666666666667],[1],[0],[0],[1.9817857000000458],['target'],173,0,173,0,517.3013483,,5,517.2860375,517.3013483,517.3013483,0.03066939999985152,519.2685867999999,[-0.42333333333333334],[0.4116666666666667],[1],[0],[0],[1.9817857000000458],['target'],013905,001,2024-10-10_13h40.50.529,visual search,2024.2.1post4,59.42844102558148,2024-10-10 13h41.46.975784 +0530,
174,0,174,[-0.03333333333333333],[-0.25166666666666665],[1],[0],[0],[2.2027565000000777],['target'],174,0,174,0,519.3131255999999,,5,519.2974998,519.3131255999999,519.3131255999999,0.028612099999918428,521.5010854,[-0.03333333333333333],[-0.25166666666666665],[1],[0],[0],[2.2027565000000777],['target'],013905,001,2024-10-10_13h40.50.529,visual search,2024.2.1post4,59.42844102558148,2024-10-10 13h41.46.975784 +0530,
175,0,175,[-0.38],[-0.0033333333333333335],[1],[0],[0],[1.926341999999977],['target'],175,0,175,0,521.5467927,,5,521.5267658999999,521.5467927,521.5467927,0.025502299999971,523.4537817,[-0.38],[-0.0033333333333333335],[1],[0],[0],[1.926341999999977],['target'],013905,001,2024-10-10_13h40.50.529,visual search,2024.2.1post4,59.42844102558148,2024-10-10 13h41.46.975784 +0530,
176,0,176,[-0.095],[0.065],[1],[0],[0],[1.5606586999999763],['target'],176,0,176,0,523.4906601,,5,523.4750538999999,523.4906601,523.4906601,0.021085500000026514,525.0367474,[-0.095],[0.065],[1],[0],[0],[1.5606586999999763],['target'],013905,001,2024-10-10_13h40.50.529,visual search,2024.2.1post4,59.42844102558148,2024-10-10 13h41.46.975784 +0530,
177,0,177,[-0.5016666666666667],[-0.05],[1],[0],[0],[2.451696300000094],['target'],177,0,177,0,525.1309036999999,,10,525.1004401999999,525.1309036999999,525.1309036999999,0.06332739999993464,527.5529285,[-0.5016666666666667],[-0.05],[1],[0],[0],[2.451696300000094],['target'],013905,001,2024-10-10_13h40.50.529,visual search,2024.2.1post4,59.42844102558148,2024-10-10 13h41.46.975784 +0530,
178,0,178,[0.021666666666666667],[0.09],[1],[0],[0],[1.6904370000002018],['target'],178,0,178,0,527.6335156999999,,10,527.6114972,527.6335156999999,527.6335156999999,0.058008500000141794,529.3027488,[0.021666666666666667],[0.09],[1],[0],[0],[1.6904370000002018],['target'],013905,001,2024-10-10_13h40.50.529,visual search,2024.2.1post4,59.42844102558148,2024-10-10 13h41.46.975784 +0530,
179,0,179,[0.17],[0.22166666666666668],[1],[0],[0],[1.705547999999908],['target'],179,0,179,0,529.3888417999999,,10,529.3604003999999,529.3888417999999,529.3888417999999,0.0572293999998692,531.0666535,[0.17],[0.22166666666666668],[1],[0],[0],[1.705547999999908],['target'],013905,001,2024-10-10_13h40.50.529,visual search,2024.2.1post4,59.42844102558148,2024-10-10 13h41.46.975784 +0530,
180,0,180,[0.16166666666666665],[-0.145],[1],[0],[0],[1.7803172999999788],['target'],180,0,180,0,531.1043322999999,,5,531.0887694999999,531.1043322999999,531.1043322999999,0.021890399999847432,532.8698336999998,[0.16166666666666665],[-0.145],[1],[0],[0],[1.7803172999999788],['target'],013905,001,2024-10-10_13h40.50.529,visual search,2024.2.1post4,59.42844102558148,2024-10-10 13h41.46.975784 +0530,
181,0,181,[0.13666666666666666],[-0.13],[1],[0],[0],[1.1206116999999267],['target'],181,0,181,0,532.9181517,,5,532.8984143,532.9181517,532.9181517,0.02816290000009758,534.0197673999999,[0.13666666666666666],[-0.13],[1],[0],[0],[1.1206116999999267],['target'],013905,001,2024-10-10_13h40.50.529,visual search,2024.2.1post4,59.42844102558148,2024-10-10 13h41.46.975784 +0530,
182,0,182,[-0.43666666666666665],[0.48833333333333334],[1],[0],[0],[6.920036900000014],['target'],182,0,182,0,534.0859284999999,,10,534.0640357,534.0859284999999,534.0859284999999,0.04388999999991938,540.9849502,[-0.43666666666666665],[0.48833333333333334],[1],[0],[0],[6.920036900000014],['target'],013905,001,2024-10-10_13h40.50.529,visual search,2024.2.1post4,59.42844102558148,2024-10-10 13h41.46.975784 +0530,
183,0,183,[0.405],[-0.31833333333333336],[1],[0],[0],[2.038784200000009],['target'],183,0,183,0,541.0302901999999,,5,541.0126275,541.0302901999999,541.0302901999999,0.02742650000004687,543.0522589,[0.405],[-0.31833333333333336],[1],[0],[0],[2.038784200000009],['target'],013905,001,2024-10-10_13h40.50.529,visual search,2024.2.1post4,59.42844102558148,2024-10-10 13h41.46.975784 +0530,
184,0,184,[-0.14333333333333334],[0.16],[1],[0],[0],[1.413224499999842],['target'],184,0,184,0,543.1307084,,10,543.1043485,543.1307084,543.1307084,0.051879500000040935,544.5182743,[-0.14333333333333334],[0.16],[1],[0],[0],[1.413224499999842],['target'],013905,001,2024-10-10_13h40.50.529,visual search,2024.2.1post4,59.42844102558148,2024-10-10 13h41.46.975784 +0530,
185,0,185,[0.43166666666666664],[0.45166666666666666],[1],[0],[0],[1.97166100000004],['target'],185,0,185,0,544.5652989999999,,5,544.5482849,544.5652989999999,544.5652989999999,0.029780299999856652,546.5209090999999,[0.43166666666666664],[0.45166666666666666],[1],[0],[0],[1.97166100000004],['target'],013905,001,2024-10-10_13h40.50.529,visual search,2024.2.1post4,59.42844102558148,2024-10-10 13h41.46.975784 +0530,
186,0,186,[-0.4866666666666667],[-0.3616666666666667],[1],[0],[0],[2.8941121000000294],['target'],186,0,186,0,546.5584787999999,,5,546.5431457,546.5584787999999,546.5584787999999,0.02182630000015706,549.4383094,[-0.4866666666666667],[-0.3616666666666667],[1],[0],[0],[2.8941121000000294],['target'],013905,001,2024-10-10_13h40.50.529,visual search,2024.2.1post4,59.42844102558148,2024-10-10 13h41.46.975784 +0530,
187,0,187,[0.23166666666666666],[-0.285],[1],[0],[0],[2.2654231000001346],['target'],187,0,187,0,549.5326247999999,,10,549.503332,549.5326247999999,549.5326247999999,0.06468500000005406,551.7694638999999,[0.23166666666666666],[-0.285],[1],[0],[0],[2.2654231000001346],['target'],013905,001,2024-10-10_13h40.50.529,visual search,2024.2.1post4,59.42844102558148,2024-10-10 13h41.46.975784 +0530,
188,0,188,[-0.24333333333333335],[0.39166666666666666],[1],[0],[0],[2.1786394000000655],['target'],188,0,188,0,551.8070212999999,,5,551.7916192999999,551.8070212999999,551.8070212999999,0.0219113999999081,553.9711652999999,[-0.24333333333333335],[0.39166666666666666],[1],[0],[0],[2.1786394000000655],['target'],013905,001,2024-10-10_13h40.50.529,visual search,2024.2.1post4,59.42844102558148,2024-10-10 13h41.46.975784 +0530,
189,0,189,[0.31333333333333335],[-0.045],[1],[0],[0],[2.152831399999968],['target'],189,0,189,0,554.017386,,5,554.0018352,554.017386,554.017386,0.030392800000072384,556.1556501999999,[0.31333333333333335],[-0.045],[1],[0],[0],[2.152831399999968],['target'],013905,001,2024-10-10_13h40.50.529,visual search,2024.2.1post4,59.42844102558148,2024-10-10 13h41.46.975784 +0530,
190,0,190,[-0.5066666666666667],[-0.24666666666666667],[1],[0],[0],[7.339525899999899],['target'],190,0,190,0,556.2492141999999,,10,556.2142059,556.2492141999999,556.2492141999999,0.05823890000010579,563.5546938999998,[-0.5066666666666667],[-0.24666666666666667],[1],[0],[0],[7.339525899999899],['target'],013905,001,2024-10-10_13h40.50.529,visual search,2024.2.1post4,59.42844102558148,2024-10-10 13h41.46.975784 +0530,
191,0,191,[-0.27166666666666667],[0.135],[1],[0],[0],[1.675392299999885],['target'],191,0,191,0,563.5973073,,5,563.5815307,563.5973073,563.5973073,0.02647690000003422,565.2578263999999,[-0.27166666666666667],[0.135],[1],[0],[0],[1.675392299999885],['target'],013905,001,2024-10-10_13h40.50.529,visual search,2024.2.1post4,59.42844102558148,2024-10-10 13h41.46.975784 +0530,
192,0,192,[-0.013333333333333334],[-0.19],[1],[0],[0],[1.6567465000000539],['target'],192,0,192,0,565.3402105,,10,565.3116190999999,565.3402105,565.3402105,0.05354319999992185,566.9690607,[-0.013333333333333334],[-0.19],[1],[0],[0],[1.6567465000000539],['target'],013905,001,2024-10-10_13h40.50.529,visual search,2024.2.1post4,59.42844102558148,2024-10-10 13h41.46.975784 +0530,
193,0,193,[0.46],[-0.051666666666666666],[1],[0],[0],[4.075901700000031],['target'],193,0,193,0,567.0332386,,10,567.0118123,567.0332386,567.0332386,0.042524100000036924,571.0888593,[0.46],[-0.051666666666666666],[1],[0],[0],[4.075901700000031],['target'],013905,001,2024-10-10_13h40.50.529,visual search,2024.2.1post4,59.42844102558148,2024-10-10 13h41.46.975784 +0530,
194,0,194,[-0.043333333333333335],[0.06833333333333333],[1],[0],[0],[1.4830173000000286],['target'],194,0,194,0,571.1403596999999,,5,571.1206388999999,571.1403596999999,571.1403596999999,0.031175099999927625,572.6043316999999,[-0.043333333333333335],[0.06833333333333333],[1],[0],[0],[1.4830173000000286],['target'],013905,001,2024-10-10_13h40.50.529,visual search,2024.2.1post4,59.42844102558148,2024-10-10 13h41.46.975784 +0530,
195,0,195,[-0.07],[-0.375],[1],[0],[0],[2.9808408999999756],['target'],195,0,195,0,572.7024936999999,,10,572.6731023,572.7024936999999,572.7024936999999,0.06856909999987693,575.6547552,[-0.07],[-0.375],[1],[0],[0],[2.9808408999999756],['target'],013905,001,2024-10-10_13h40.50.529,visual search,2024.2.1post4,59.42844102558148,2024-10-10 13h41.46.975784 +0530,
196,0,196,[-0.13833333333333334],[0.365],[1],[0],[0],[2.716139600000133],['target'],196,0,196,0,575.7491442999999,,10,575.7217076,575.7491442999999,575.7491442999999,0.0665871999999581,578.4387331,[-0.13833333333333334],[0.365],[1],[0],[0],[2.716139600000133],['target'],013905,001,2024-10-10_13h40.50.529,visual search,2024.2.1post4,59.42844102558148,2024-10-10 13h41.46.975784 +0530,
197,0,197,[-0.12833333333333333],[0.3016666666666667],[1],[0],[0],[1.136418100000128],['target'],197,0,197,0,578.4859104,,5,578.4697732,578.4859104,578.4859104,0.030503799999905823,579.60707,[-0.12833333333333333],[0.3016666666666667],[1],[0],[0],[1.136418100000128],['target'],013905,001,2024-10-10_13h40.50.529,visual search,2024.2.1post4,59.42844102558148,2024-10-10 13h41.46.975784 +0530,
198,0,198,[0.18833333333333332],[-0.24666666666666667],[1],[0],[0],[1.906601199999841],['target'],198,0,198,0,579.6468218,,5,579.6308118,579.6468218,579.6468218,0.023413099999970655,581.538219,[0.18833333333333332],[-0.24666666666666667],[1],[0],[0],[1.906601199999841],['target'],013905,001,2024-10-10_13h40.50.529,visual search,2024.2.1post4,59.42844102558148,2024-10-10 13h41.46.975784 +0530,
199,0,199,[-0.16],[0.49166666666666664],[1],[0],[0],[1.984150199999931],['target'],199,0,199,0,581.5854872,,5,581.5690605,581.5854872,581.5854872,0.03055169999993268,583.5539919999999,[-0.16],[0.49166666666666664],[1],[0],[0],[1.984150199999931],['target'],013905,001,2024-10-10_13h40.50.529,visual search,2024.2.1post4,59.42844102558148,2024-10-10 13h41.46.975784 +0530,
