reward_today,future_reward,delay,thisN,thisTrialN,thisRepN,key_resp.keys,key_resp.rt,key_resp.duration,trials.thisRepN,trials.thisTrialN,trials.thisN,trials.thisIndex,thisRow.t,notes,trial.started,fixation.started,text.started,key_resp.started,fixation.stopped,trial.stopped,trials.key_resp.keys,trials.key_resp.rt,trials.key_resp.duration,participant,session,date,expName,psychopyVersion,frameRate,expStart,
67,75,119,0,0,0,t,0.43793159996857867,None,0,0,0,5,0.2349506999598816,,0.21028519998071715,0.2349506999598816,1.002178599999752,1.002178599999752,1.2349123999592848,1.4609767000074498,t,0.43793159996857867,None,506308,001,2024-11-18_12h05.59.129,delay_discounting,2024.2.1post4,60.142742787407435,2024-11-18 12h06.07.015547 +0530,
78,80,162,1,1,0,l,1.3079597000032663,None,0,1,1,6,1.484610999992583,,1.471199199964758,1.484610999992583,2.4682772000087425,2.4682772000087425,2.4849429999594577,3.7870121999876574,l,1.3079597000032663,None,506308,001,2024-11-18_12h05.59.129,delay_discounting,2024.2.1post4,60.142742787407435,2024-11-18 12h06.07.015547 +0530,
11,30,7,2,2,0,t,0.43289250001544133,None,0,2,2,0,3.8184609999880195,,3.797863000014331,3.8184609999880195,4.801813500002027,4.801813500002027,4.8184296999825165,5.2380752000026405,t,0.43289250001544133,None,506308,001,2024-11-18_12h05.59.129,delay_discounting,2024.2.1post4,60.142742787407435,2024-11-18 12h06.07.015547 +0530,
49,60,89,3,3,0,l,0.4405881999991834,None,0,3,3,4,5.268646300013643,,5.248023399966769,5.268646300013643,6.251842600002419,6.251842600002419,6.268647199962288,6.703578799962997,l,0.4405881999991834,None,506308,001,2024-11-18_12h05.59.129,delay_discounting,2024.2.1post4,60.142742787407435,2024-11-18 12h06.07.015547 +0530,
15,35,13,4,4,0,t,0.6855584000004455,None,0,4,4,1,6.722920599975623,,6.710414899978787,6.722920599975623,7.710564100008924,7.710564100008924,7.72714219999034,8.412260799959768,t,0.6855584000004455,None,506308,001,2024-11-18_12h05.59.129,delay_discounting,2024.2.1post4,60.142742787407435,2024-11-18 12h06.07.015547 +0530,
40,55,62,5,5,0,l,0.7175833999644965,None,0,5,5,3,8.435234699980356,,8.419827500008978,8.435234699980356,9.418779400002677,9.418779400002677,9.435287399974186,10.153748899989296,l,0.7175833999644965,None,506308,001,2024-11-18_12h05.59.129,delay_discounting,2024.2.1post4,60.142742787407435,2024-11-18 12h06.07.015547 +0530,
27,50,21,6,6,0,t,0.4794317999621853,None,0,6,6,2,10.173008799960371,,10.16097249998711,10.173008799960371,11.160702599969227,11.160702599969227,11.177368299977388,11.645829099987168,t,0.4794317999621853,None,506308,001,2024-11-18_12h05.59.129,delay_discounting,2024.2.1post4,60.142742787407435,2024-11-18 12h06.07.015547 +0530,
67,75,119,7,0,1,l,0.47500250005396083,None,1,0,7,5,11.668699599977117,,11.653648699983023,11.668699599977117,12.652137400000356,12.652137400000356,12.668762799992692,13.137266399979126,l,0.47500250005396083,None,506308,001,2024-11-18_12h05.59.129,delay_discounting,2024.2.1post4,60.142742787407435,2024-11-18 12h06.07.015547 +0530,
27,50,21,8,1,1,t,0.6596456000115722,None,1,1,8,2,13.156838700000662,,13.144210099999327,13.156838700000662,14.144198099966161,14.144198099966161,14.160848499974236,14.812876799958758,t,0.6596456000115722,None,506308,001,2024-11-18_12h05.59.129,delay_discounting,2024.2.1post4,60.142742787407435,2024-11-18 12h06.07.015547 +0530,
78,80,162,9,2,1,l,0.986657599976752,None,1,2,9,6,14.835518200008664,,14.820583499968052,14.835518200008664,15.818866899993736,15.818866899993736,15.835602500010282,16.821000800002366,l,0.986657599976752,None,506308,001,2024-11-18_12h05.59.129,delay_discounting,2024.2.1post4,60.142742787407435,2024-11-18 12h06.07.015547 +0530,
15,35,13,10,3,1,t,1.4313095000106841,None,1,3,10,1,16.84077609999804,,16.828469300002325,16.84077609999804,17.82768559997203,17.82768559997203,17.844280199962668,19.262781199999154,t,1.4313095000106841,None,506308,001,2024-11-18_12h05.59.129,delay_discounting,2024.2.1post4,60.142742787407435,2024-11-18 12h06.07.015547 +0530,
11,30,7,11,4,1,l,1.1942242999793962,None,1,4,11,0,19.28552239999408,,19.270421399967745,19.28552239999408,20.26922039996134,20.26922039996134,20.285772799979895,21.470100399979856,l,1.1942242999793962,None,506308,001,2024-11-18_12h05.59.129,delay_discounting,2024.2.1post4,60.142742787407435,2024-11-18 12h06.07.015547 +0530,
40,55,62,12,5,1,t,1.116275200038217,None,1,5,12,3,21.48554129997501,,21.473895800008904,21.48554129997501,22.469113999977708,22.469113999977708,22.485725399979856,23.587681300006807,t,1.116275200038217,None,506308,001,2024-11-18_12h05.59.129,delay_discounting,2024.2.1post4,60.142742787407435,2024-11-18 12h06.07.015547 +0530,
49,60,89,13,6,1,l,0.8710228000418283,None,1,6,13,4,23.60654989996692,,23.594328099978156,23.60654989996692,24.602720999973826,24.602720999973826,24.619288099987898,25.487390999973286,l,0.8710228000418283,None,506308,001,2024-11-18_12h05.59.129,delay_discounting,2024.2.1post4,60.142742787407435,2024-11-18 12h06.07.015547 +0530,
78,80,162,14,0,2,t,0.4193500999826938,None,2,0,14,6,25.505947300000116,,25.493669599993154,25.505947300000116,26.50272320001386,26.50272320001386,26.519378700002562,26.937656399968546,t,0.4193500999826938,None,506308,001,2024-11-18_12h05.59.129,delay_discounting,2024.2.1post4,60.142742787407435,2024-11-18 12h06.07.015547 +0530,
15,35,13,15,1,2,l,1.1268048000056297,None,2,1,15,1,26.95660500001395,,26.944646699994337,26.95660500001395,27.952465999987908,27.952465999987908,27.969371399958618,29.088251899986062,l,1.1268048000056297,None,506308,001,2024-11-18_12h05.59.129,delay_discounting,2024.2.1post4,60.142742787407435,2024-11-18 12h06.07.015547 +0530,
40,55,62,16,2,2,t,0.41522069997154176,None,2,2,16,3,29.108865899965167,,29.09639479999896,29.108865899965167,30.094918499991763,30.094918499991763,30.111507099994924,30.513300799997523,t,0.41522069997154176,None,506308,001,2024-11-18_12h05.59.129,delay_discounting,2024.2.1post4,60.142742787407435,2024-11-18 12h06.07.015547 +0530,
49,60,89,17,3,2,l,1.2947076000273228,None,2,3,17,4,30.53627039998537,,30.52065429999493,30.53627039998537,31.51965159998508,31.51965159998508,31.536306399968453,32.82144639996113,l,1.2947076000273228,None,506308,001,2024-11-18_12h05.59.129,delay_discounting,2024.2.1post4,60.142742787407435,2024-11-18 12h06.07.015547 +0530,
67,75,119,18,4,2,t,0.9620998000027612,None,2,4,18,5,32.84182699996745,,32.82912850001594,32.84182699996745,33.82843439996941,33.82843439996941,33.84498850000091,34.79702230001567,t,0.9620998000027612,None,506308,001,2024-11-18_12h05.59.129,delay_discounting,2024.2.1post4,60.142742787407435,2024-11-18 12h06.07.015547 +0530,
27,50,21,19,5,2,l,1.388403999968432,None,2,5,19,2,34.81986859999597,,34.80454469996039,34.81986859999597,35.80311019998044,35.80311019998044,35.81982779997634,37.20514809997985,l,1.388403999968432,None,506308,001,2024-11-18_12h05.59.129,delay_discounting,2024.2.1post4,60.142742787407435,2024-11-18 12h06.07.015547 +0530,
11,30,7,20,6,2,t,1.1284927999950014,None,2,6,20,0,37.22672310000053,,37.2142302999855,37.22672310000053,38.21197519998532,38.21197519998532,38.22855309996521,39.34692759998143,t,1.1284927999950014,None,506308,001,2024-11-18_12h05.59.129,delay_discounting,2024.2.1post4,60.142742787407435,2024-11-18 12h06.07.015547 +0530,
11,30,7,21,0,3,l,1.0170015000039712,None,3,0,21,0,39.36175659997389,,39.34728609997546,39.36175659997389,40.36200259998441,40.36200259998441,40.36200259998441,41.3812740999856,l,1.0170015000039712,None,506308,001,2024-11-18_12h05.59.129,delay_discounting,2024.2.1post4,60.142742787407435,2024-11-18 12h06.07.015547 +0530,
49,60,89,22,1,3,t,1.5875471999752335,None,3,1,22,4,41.40333199995803,,41.388496199971996,41.40333199995803,42.38681509997696,42.38681509997696,42.4034837000072,43.98890499997651,t,1.5875471999752335,None,506308,001,2024-11-18_12h05.59.129,delay_discounting,2024.2.1post4,60.142742787407435,2024-11-18 12h06.07.015547 +0530,
78,80,162,23,2,3,l,1.4834107999922708,None,3,2,23,6,44.009277799981646,,43.996867800015025,44.009277799981646,44.99557619995903,44.99557619995903,45.01217269996414,46.48199299996486,l,1.4834107999922708,None,506308,001,2024-11-18_12h05.59.129,delay_discounting,2024.2.1post4,60.142742787407435,2024-11-18 12h06.07.015547 +0530,
27,50,21,24,3,3,t,0.7433644999982789,None,3,3,24,2,46.5036055999808,,46.48968940001214,46.5036055999808,47.4870196999982,47.4870196999982,47.50367909995839,48.239000500005204,t,0.7433644999982789,None,506308,001,2024-11-18_12h05.59.129,delay_discounting,2024.2.1post4,60.142742787407435,2024-11-18 12h06.07.015547 +0530,
67,75,119,25,4,3,l,0.9072219000081532,None,3,4,25,5,48.26067599997623,,48.24756879999768,48.26067599997623,49.24581459996989,49.24581459996989,49.26241929997923,50.16415139997844,l,0.9072219000081532,None,506308,001,2024-11-18_12h05.59.129,delay_discounting,2024.2.1post4,60.142742787407435,2024-11-18 12h06.07.015547 +0530,
40,55,62,26,5,3,t,0.8089639999670908,None,3,5,26,3,50.18719309999142,,50.17149729997618,50.18719309999142,51.17051500000525,51.17051500000525,51.18721090001054,51.98925019998569,t,0.8089639999670908,None,506308,001,2024-11-18_12h05.59.129,delay_discounting,2024.2.1post4,60.142742787407435,2024-11-18 12h06.07.015547 +0530,
15,35,13,27,6,3,l,0.6326944000320509,None,3,6,27,1,52.00850709999213,,51.99613109999336,52.00850709999213,52.99589459999697,52.99589459999697,53.01253790000919,53.631336399994325,l,0.6326944000320509,None,506308,001,2024-11-18_12h05.59.129,delay_discounting,2024.2.1post4,60.142742787407435,2024-11-18 12h06.07.015547 +0530,
15,35,13,28,0,4,t,0.40789309999672696,None,4,0,28,1,53.64573549997294,,53.63171579997288,53.64573549997294,54.645966099982616,54.645966099982616,54.645966099982616,55.06426169996848,t,0.40789309999672696,None,506308,001,2024-11-18_12h05.59.129,delay_discounting,2024.2.1post4,60.142742787407435,2024-11-18 12h06.07.015547 +0530,
27,50,21,29,1,4,l,2.2921366000082344,None,4,1,29,2,55.08734510000795,,55.07228199997917,55.08734510000795,56.07071040000301,56.07071040000301,56.0874098999775,58.37274229998002,l,2.2921366000082344,None,506308,001,2024-11-18_12h05.59.129,delay_discounting,2024.2.1post4,60.142742787407435,2024-11-18 12h06.07.015547 +0530,
40,55,62,30,2,4,t,0.8537120000110008,None,4,2,30,3,58.39217120001558,,58.379376899974886,58.39217120001558,59.379548500000965,59.379548500000965,59.39617680001538,60.247213699971326,t,0.8537120000110008,None,506308,001,2024-11-18_12h05.59.129,delay_discounting,2024.2.1post4,60.142742787407435,2024-11-18 12h06.07.015547 +0530,
49,60,89,31,3,4,l,1.1844596999580972,None,4,3,31,4,60.27077179995831,,60.25139729998773,60.27077179995831,61.25414889998501,61.25414889998501,61.27082480001263,62.455881399975624,l,1.1844596999580972,None,506308,001,2024-11-18_12h05.59.129,delay_discounting,2024.2.1post4,60.142742787407435,2024-11-18 12h06.07.015547 +0530,
67,75,119,32,4,4,t,0.6623996999696828,None,4,4,32,5,62.474929499963764,,62.462694699992426,62.474929499963764,63.47089810000034,63.47089810000034,63.48775879997993,64.13983259996166,t,0.6623996999696828,None,506308,001,2024-11-18_12h05.59.129,delay_discounting,2024.2.1post4,60.142742787407435,2024-11-18 12h06.07.015547 +0530,
11,30,7,33,5,4,l,2.8029444999992847,None,4,5,33,0,64.1603485000087,,64.14819599996554,64.1603485000087,65.14651230000891,65.14651230000891,65.16307640000014,67.96501230000285,l,2.8029444999992847,None,506308,001,2024-11-18_12h05.59.129,delay_discounting,2024.2.1post4,60.142742787407435,2024-11-18 12h06.07.015547 +0530,
78,80,162,34,6,4,t,2.4978507999912836,None,4,6,34,6,67.98797819996253,,67.97272520000115,67.98797819996253,68.9713797000004,68.9713797000004,68.98796489997767,71.47325440001441,t,2.4978507999912836,None,506308,001,2024-11-18_12h05.59.129,delay_discounting,2024.2.1post4,60.142742787407435,2024-11-18 12h06.07.015547 +0530,
67,75,119,35,0,5,l,0.9489792000385933,None,5,0,35,5,71.49316539999563,,71.48091749998275,71.49316539999563,72.48019520001253,72.48019520001253,72.49675120000029,73.4321546999854,l,0.9489792000385933,None,506308,001,2024-11-18_12h05.59.129,delay_discounting,2024.2.1post4,60.142742787407435,2024-11-18 12h06.07.015547 +0530,
15,35,13,36,1,5,t,0.7903742000344209,None,5,1,36,1,73.4549652999849,,73.43946739996318,73.4549652999849,74.43822909996379,74.43822909996379,74.45499699999345,75.24022639996838,t,0.7903742000344209,None,506308,001,2024-11-18_12h05.59.129,delay_discounting,2024.2.1post4,60.142742787407435,2024-11-18 12h06.07.015547 +0530,
78,80,162,37,2,5,l,1.6934657000238076,None,5,2,37,6,75.25973659998272,,75.24751509999624,75.25973659998272,76.24702089995844,76.24702089995844,76.2635636999621,77.94871159998002,l,1.6934657000238076,None,506308,001,2024-11-18_12h05.59.129,delay_discounting,2024.2.1post4,60.142742787407435,2024-11-18 12h06.07.015547 +0530,
27,50,21,38,3,5,t,1.7087804999900982,None,5,3,38,2,77.97169639996719,,77.95619329996407,77.97169639996719,78.95508340001106,78.95508340001106,78.9718022000161,80.6739729999681,t,1.7087804999900982,None,506308,001,2024-11-18_12h05.59.129,delay_discounting,2024.2.1post4,60.142742787407435,2024-11-18 12h06.07.015547 +0530,
40,55,62,39,4,5,t,2.2096716999658383,None,5,4,39,3,80.69384530000389,,80.68133089999901,80.69384530000389,81.68056279997109,81.68056279997109,81.69715570000699,83.89905529998941,t,2.2096716999658383,None,506308,001,2024-11-18_12h05.59.129,delay_discounting,2024.2.1post4,60.142742787407435,2024-11-18 12h06.07.015547 +0530,
11,30,7,40,5,5,t,0.4954181000357494,None,5,5,40,0,83.92183319997275,,83.90673599997535,83.92183319997275,84.9054049999686,84.9054049999686,84.92204819998005,85.40726179996273,t,0.4954181000357494,None,506308,001,2024-11-18_12h05.59.129,delay_discounting,2024.2.1post4,60.142742787407435,2024-11-18 12h06.07.015547 +0530,
49,60,89,41,6,5,t,0.5055811000056565,None,5,6,41,4,85.42971910000779,,85.414839199977,85.42971910000779,86.41410499997437,86.41410499997437,86.4307836999651,86.93249729997478,t,0.5055811000056565,None,506308,001,2024-11-18_12h05.59.129,delay_discounting,2024.2.1post4,60.142742787407435,2024-11-18 12h06.07.015547 +0530,
27,50,21,42,0,6,t,0.422460800036788,None,6,0,42,2,86.95544409996364,,86.93995609995909,86.95544409996364,87.93893939995905,87.93893939995905,87.95560990000376,88.37395839998499,t,0.422460800036788,None,506308,001,2024-11-18_12h05.59.129,delay_discounting,2024.2.1post4,60.142742787407435,2024-11-18 12h06.07.015547 +0530,
49,60,89,43,1,6,t,0.5335663000005297,None,6,1,43,4,88.39441000000807,,88.3817705999827,88.39441000000807,89.3809462999925,89.3809462999925,89.39750259998254,89.91706120001618,t,0.5335663000005297,None,506308,001,2024-11-18_12h05.59.129,delay_discounting,2024.2.1post4,60.142742787407435,2024-11-18 12h06.07.015547 +0530,
67,75,119,44,2,6,t,0.986736299993936,None,6,2,44,5,89.93885239999508,,89.92434560001129,89.93885239999508,90.92237119999481,90.92237119999481,90.93866549996892,91.92410140001448,t,0.986736299993936,None,506308,001,2024-11-18_12h05.59.129,delay_discounting,2024.2.1post4,60.142742787407435,2024-11-18 12h06.07.015547 +0530,
11,30,7,45,3,6,t,0.497872699983418,None,6,3,45,0,91.94436109997332,,91.93176329997368,91.94436109997332,92.9310845999862,92.9310845999862,92.94764869997744,93.43276799999876,t,0.497872699983418,None,506308,001,2024-11-18_12h05.59.129,delay_discounting,2024.2.1post4,60.142742787407435,2024-11-18 12h06.07.015547 +0530,
78,80,162,46,4,6,l,1.5553273999830708,None,6,4,46,6,93.45572889997857,,93.43992319999961,93.45572889997857,94.43906549998792,94.43906549998792,94.45571850001579,96.00796590000391,l,1.5553273999830708,None,506308,001,2024-11-18_12h05.59.129,delay_discounting,2024.2.1post4,60.142742787407435,2024-11-18 12h06.07.015547 +0530,
15,35,13,47,5,6,t,0.43605880002724007,None,6,5,47,1,96.02762840001378,,96.0154293999658,96.02762840001378,97.0145862000063,97.0145862000063,97.03119589999551,97.46542349999072,t,0.43605880002724007,None,506308,001,2024-11-18_12h05.59.129,delay_discounting,2024.2.1post4,60.142742787407435,2024-11-18 12h06.07.015547 +0530,
40,55,62,48,6,6,l,0.8271848000003956,None,6,6,48,3,97.4809315999737,,97.46901689999504,97.4809315999737,98.48133209999651,98.48133209999651,98.48133209999651,99.31596779997926,l,0.8271848000003956,None,506308,001,2024-11-18_12h05.59.129,delay_discounting,2024.2.1post4,60.142742787407435,2024-11-18 12h06.07.015547 +0530,
40,55,62,49,0,7,t,0.7226827999693342,None,7,0,49,3,99.33104959997581,,99.31622699997388,99.33104959997581,100.33134659996722,100.33134659996722,100.33134659996722,101.06668469996657,t,0.7226827999693342,None,506308,001,2024-11-18_12h05.59.129,delay_discounting,2024.2.1post4,60.142742787407435,2024-11-18 12h06.07.015547 +0530,
15,35,13,50,1,7,t,1.592191300005652,None,7,1,50,1,101.08924910001224,,101.07495489995927,101.08924910001224,102.07282950001536,102.07282950001536,102.0895170000149,103.67482909996761,t,1.592191300005652,None,506308,001,2024-11-18_12h05.59.129,delay_discounting,2024.2.1post4,60.142742787407435,2024-11-18 12h06.07.015547 +0530,
49,60,89,51,2,7,l,0.2845362000516616,None,7,2,51,4,103.69416869996348,,103.6818220000132,103.69416869996348,104.68162089999532,104.68162089999532,104.6982110000099,104.98322769999504,l,0.2845362000516616,None,506308,001,2024-11-18_12h05.59.129,delay_discounting,2024.2.1post4,60.142742787407435,2024-11-18 12h06.07.015547 +0530,
78,80,162,52,3,7,l,0.6493673999793828,None,7,3,52,6,105.00624129996868,,104.99073510000017,105.00624129996868,105.9896454999689,105.9896454999689,106.00628889998188,106.64253319997806,l,0.6493673999793828,None,506308,001,2024-11-18_12h05.59.129,delay_discounting,2024.2.1post4,60.142742787407435,2024-11-18 12h06.07.015547 +0530,
27,50,21,53,4,7,l,0.6107598000089638,None,7,4,53,2,106.66165119997459,,106.64954279997619,106.66165119997459,107.64843399997335,107.64843399997335,107.66502499999478,108.26730760000646,l,0.6107598000089638,None,506308,001,2024-11-18_12h05.59.129,delay_discounting,2024.2.1post4,60.142742787407435,2024-11-18 12h06.07.015547 +0530,
67,75,119,54,5,7,l,0.2990177000174299,None,7,5,54,5,108.28978689998621,,108.27522289997432,108.28978689998621,109.27313129999675,109.27313129999675,109.2898824000149,109.57531280000694,l,0.2990177000174299,None,506308,001,2024-11-18_12h05.59.129,delay_discounting,2024.2.1post4,60.142742787407435,2024-11-18 12h06.07.015547 +0530,
11,30,7,55,6,7,l,0.6830834999564104,None,7,6,55,0,109.60648999997647,,109.58490279997932,109.60648999997647,110.58989539998583,110.58989539998583,110.60650270001497,111.27588899998227,l,0.6830834999564104,None,506308,001,2024-11-18_12h05.59.129,delay_discounting,2024.2.1post4,60.142742787407435,2024-11-18 12h06.07.015547 +0530,
49,60,89,56,0,8,l,0.4056268999702297,None,8,0,56,4,111.29518849996384,,111.28285620000679,111.29518849996384,112.28200120001566,112.28200120001566,112.29857699997956,112.69998749997467,l,0.4056268999702297,None,506308,001,2024-11-18_12h05.59.129,delay_discounting,2024.2.1post4,60.142742787407435,2024-11-18 12h06.07.015547 +0530,
15,35,13,57,1,8,l,0.5843405000050552,None,8,1,57,1,112.7232626999612,,112.70840679999674,112.7232626999612,113.70666429999983,113.70666429999983,113.72330089996103,114.30830999999307,l,0.5843405000050552,None,506308,001,2024-11-18_12h05.59.129,delay_discounting,2024.2.1post4,60.142742787407435,2024-11-18 12h06.07.015547 +0530,
11,30,7,58,2,8,l,1.1640850999974646,None,8,2,58,0,114.32878209999762,,114.31634680001298,114.32878209999762,115.31543620000593,115.31543620000593,115.33202689996688,116.48375809995923,l,1.1640850999974646,None,506308,001,2024-11-18_12h05.59.129,delay_discounting,2024.2.1post4,60.142742787407435,2024-11-18 12h06.07.015547 +0530,
78,80,162,59,3,8,t,3.6127618000027724,None,8,3,59,6,116.50688999996055,,116.49155470001278,116.50688999996055,117.49015399999917,117.49015399999917,117.50687179999659,121.10887110000476,t,3.6127618000027724,None,506308,001,2024-11-18_12h05.59.129,delay_discounting,2024.2.1post4,60.142742787407435,2024-11-18 12h06.07.015547 +0530,
40,55,62,60,4,8,l,0.41196850000415,None,8,4,60,3,121.12873259995831,,121.11649270000635,121.12873259995831,122.11581360001583,122.11581360001583,122.13234000001103,122.53408610000042,l,0.41196850000415,None,506308,001,2024-11-18_12h05.59.129,delay_discounting,2024.2.1post4,60.142742787407435,2024-11-18 12h06.07.015547 +0530,
67,75,119,61,5,8,t,0.004303499998059124,None,8,5,61,5,122.55700420000358,,122.54148049996002,122.55700420000358,123.54026649997104,123.54026649997104,123.5569516000105,123.55806279997341,t,0.004303499998059124,None,506308,001,2024-11-18_12h05.59.129,delay_discounting,2024.2.1post4,60.142742787407435,2024-11-18 12h06.07.015547 +0530,
27,50,21,62,6,8,l,0.4020286000450142,None,8,6,62,2,123.57363090000581,,123.56144189997576,123.57363090000581,124.5571123000118,124.5571123000118,124.57393089996185,124.97572149999905,l,0.4020286000450142,None,506308,001,2024-11-18_12h05.59.129,delay_discounting,2024.2.1post4,60.142742787407435,2024-11-18 12h06.07.015547 +0530,
78,80,162,63,0,9,t,0.3188178000273183,None,9,0,63,6,124.99426110001514,,124.98255309998058,124.99426110001514,125.99056469998322,125.99056469998322,126.0072860000073,126.32560839998769,t,0.3188178000273183,None,506308,001,2024-11-18_12h05.59.129,delay_discounting,2024.2.1post4,60.142742787407435,2024-11-18 12h06.07.015547 +0530,
67,75,119,64,1,9,t,4.309208100021351,None,9,1,64,5,126.34559179999633,,126.33298710000236,126.34559179999633,127.33265409996966,127.33265409996966,127.34922029997688,131.65096200001426,t,4.309208100021351,None,506308,001,2024-11-18_12h05.59.129,delay_discounting,2024.2.1post4,60.142742787407435,2024-11-18 12h06.07.015547 +0530,
15,35,13,65,2,9,l,0.679912899970077,None,9,2,65,1,131.67419180000434,,131.65890059998492,131.67419180000434,132.6575673999614,132.6575673999614,132.67423289996805,133.34269069996662,l,0.679912899970077,None,506308,001,2024-11-18_12h05.59.129,delay_discounting,2024.2.1post4,60.142742787407435,2024-11-18 12h06.07.015547 +0530,
40,55,62,66,3,9,t,1.6647261999896728,None,9,3,66,3,133.36267279996537,,133.35054249997484,133.36267279996537,134.3495800999808,134.3495800999808,134.36619819997577,136.0180375999771,t,1.6647261999896728,None,506308,001,2024-11-18_12h05.59.129,delay_discounting,2024.2.1post4,60.142742787407435,2024-11-18 12h06.07.015547 +0530,
49,60,89,67,4,9,l,1.4605257000075653,None,9,4,67,4,136.04106359998696,,136.02546939998865,136.04106359998696,137.02434709999943,137.02434709999943,137.04110599996056,138.49310009996407,l,1.4605257000075653,None,506308,001,2024-11-18_12h05.59.129,delay_discounting,2024.2.1post4,60.142742787407435,2024-11-18 12h06.07.015547 +0530,
11,30,7,68,5,9,t,1.0624444000422955,None,9,5,68,0,138.5139018999762,,138.50150559999747,138.5139018999762,139.49986539996462,139.49986539996462,139.51649859995814,140.56816009996692,t,1.0624444000422955,None,506308,001,2024-11-18_12h05.59.129,delay_discounting,2024.2.1post4,60.142742787407435,2024-11-18 12h06.07.015547 +0530,
27,50,21,69,6,9,l,0.9353888999903575,None,9,6,69,2,140.59118019999005,,140.57541849999689,140.59118019999005,141.57458909996785,141.57458909996785,141.59127949998947,142.5264177999925,l,0.9353888999903575,None,506308,001,2024-11-18_12h05.59.129,delay_discounting,2024.2.1post4,60.142742787407435,2024-11-18 12h06.07.015547 +0530,
27,50,21,70,0,10,l,0.4148459999705665,None,10,0,70,2,142.5412895999616,,142.52677419997053,142.5412895999616,143.5415591999772,143.5415591999772,143.5415591999772,143.9603532999754,l,0.4148459999705665,None,506308,001,2024-11-18_12h05.59.129,delay_discounting,2024.2.1post4,60.142742787407435,2024-11-18 12h06.07.015547 +0530,
15,35,13,71,1,10,t,2.193811099976301,None,10,1,71,1,143.97949379996862,,143.96722900000168,143.97949379996862,144.96675610000966,144.96675610000966,144.9833362000063,147.1689614999923,t,2.193811099976301,None,506308,001,2024-11-18_12h05.59.129,delay_discounting,2024.2.1post4,60.142742787407435,2024-11-18 12h06.07.015547 +0530,
49,60,89,72,2,10,l,1.9890419999719597,None,10,2,72,4,147.1915452000103,,147.17554590001237,147.1915452000103,148.17498780001188,148.17498780001188,148.1915953999851,150.1768274999922,l,1.9890419999719597,None,506308,001,2024-11-18_12h05.59.129,delay_discounting,2024.2.1post4,60.142742787407435,2024-11-18 12h06.07.015547 +0530,
11,30,7,73,3,10,l,2.358700899989344,None,10,3,73,0,150.1967644999968,,150.18404949997785,150.1967644999968,151.1837147999904,151.1837147999904,151.2003071999643,153.55214769998565,l,2.358700899989344,None,506308,001,2024-11-18_12h05.59.129,delay_discounting,2024.2.1post4,60.142742787407435,2024-11-18 12h06.07.015547 +0530,
40,55,62,74,4,10,t,0.3658489999943413,None,10,4,74,3,153.57515290001174,,153.56044540001312,153.57515290001174,154.55848750000587,154.55848750000587,154.5752313999692,154.9273785999976,t,0.3658489999943413,None,506308,001,2024-11-18_12h05.59.129,delay_discounting,2024.2.1post4,60.142742787407435,2024-11-18 12h06.07.015547 +0530,
67,75,119,75,5,10,l,0.9403117000474595,None,10,5,75,5,154.94669139996404,,154.93455369997537,154.94669139996404,155.93394089996582,155.93394089996582,155.95054579997668,156.88563789997716,l,0.9403117000474595,None,506308,001,2024-11-18_12h05.59.129,delay_discounting,2024.2.1post4,60.142742787407435,2024-11-18 12h06.07.015547 +0530,
78,80,162,76,6,10,t,0.7841920000500977,None,10,6,76,6,156.9086933999788,,156.89292519999435,156.9086933999788,157.8920150999911,157.8920150999911,157.9086625999771,158.69426479999674,t,0.7841920000500977,None,506308,001,2024-11-18_12h05.59.129,delay_discounting,2024.2.1post4,60.142742787407435,2024-11-18 12h06.07.015547 +0530,
78,80,162,77,0,11,l,0.5010086999973282,None,11,0,77,6,158.70865260000573,,158.69467910000822,158.70865260000573,159.70880259998376,159.70880259998376,159.70880259998376,160.22711739997612,l,0.5010086999973282,None,506308,001,2024-11-18_12h05.59.129,delay_discounting,2024.2.1post4,60.142742787407435,2024-11-18 12h06.07.015547 +0530,
40,55,62,78,1,11,l,0.29793010000139475,None,11,1,78,3,160.2459617999848,,160.23425809998298,160.2459617999848,161.24213929998223,161.24213929998223,161.25877690000925,161.54419789998792,l,0.29793010000139475,None,506308,001,2024-11-18_12h05.59.129,delay_discounting,2024.2.1post4,60.142742787407435,2024-11-18 12h06.07.015547 +0530,
15,35,13,79,2,11,l,0.33672359999036416,None,11,2,79,1,161.56425180000952,,161.5517353999894,161.56425180000952,162.55089549999684,162.55089549999684,162.56748749996768,162.90240700001596,l,0.33672359999036416,None,506308,001,2024-11-18_12h05.59.129,delay_discounting,2024.2.1post4,60.142742787407435,2024-11-18 12h06.07.015547 +0530,
27,50,21,80,3,11,l,0.770597800030373,None,11,3,80,2,162.92561959999148,,162.90960650000488,162.92561959999148,163.9089651000104,163.9089651000104,163.9255726999836,164.69423089997144,l,0.770597800030373,None,506308,001,2024-11-18_12h05.59.129,delay_discounting,2024.2.1post4,60.142742787407435,2024-11-18 12h06.07.015547 +0530,
11,30,7,81,4,11,t,1.1761576000135392,None,11,4,81,0,164.71457889996236,,164.70218979998026,164.71457889996236,165.7011128999875,165.7011128999875,165.7175653000013,166.8863004000159,t,1.1761576000135392,None,506308,001,2024-11-18_12h05.59.129,delay_discounting,2024.2.1post4,60.142742787407435,2024-11-18 12h06.07.015547 +0530,
49,60,89,82,5,11,t,0.33332869998412207,None,11,5,82,4,166.9090211999719,,166.89349019998917,166.9090211999719,167.8924466999597,167.8924466999597,167.90914629999315,168.22829950001324,t,0.33332869998412207,None,506308,001,2024-11-18_12h05.59.129,delay_discounting,2024.2.1post4,60.142742787407435,2024-11-18 12h06.07.015547 +0530,
67,75,119,83,6,11,l,0.8485968000022694,None,11,6,83,5,168.2482015999849,,168.23568809998687,168.2482015999849,169.23454659996787,169.23454659996787,169.25115759996697,170.08643540000776,l,0.8485968000022694,None,506308,001,2024-11-18_12h05.59.129,delay_discounting,2024.2.1post4,60.142742787407435,2024-11-18 12h06.07.015547 +0530,
40,55,62,84,0,12,t,1.0945017999620177,None,12,0,84,3,170.10919280000962,,170.09380089998012,170.10919280000962,171.0926097999909,171.0926097999909,171.10927660000743,172.19455869996455,t,1.0945017999620177,None,506308,001,2024-11-18_12h05.59.129,delay_discounting,2024.2.1post4,60.142742787407435,2024-11-18 12h06.07.015547 +0530,
11,30,7,85,1,12,l,0.38255400001071393,None,12,1,85,0,172.21480429999065,,172.20254099997692,172.21480429999065,173.20140429999446,173.20140429999446,173.2179815999698,173.58680349995848,l,0.38255400001071393,None,506308,001,2024-11-18_12h05.59.129,delay_discounting,2024.2.1post4,60.142742787407435,2024-11-18 12h06.07.015547 +0530,
78,80,162,86,2,12,t,None,None,12,2,86,6,173.60932320001302,,173.5942381999921,173.60932320001302,174.59278619999532,174.59278619999532,174.60938889998943,174.81108289997792,t,None,None,506308,001,2024-11-18_12h05.59.129,delay_discounting,2024.2.1post4,60.142742787407435,2024-11-18 12h06.07.015547 +0530,
27,50,21,87,3,12,l,3.8190268999896944,None,12,3,87,2,174.83055929996772,,174.8183788000024,174.83055929996772,175.818142300006,175.818142300006,175.83479349996196,179.65311949996976,l,3.8190268999896944,None,506308,001,2024-11-18_12h05.59.129,delay_discounting,2024.2.1post4,60.142742787407435,2024-11-18 12h06.07.015547 +0530,
67,75,119,88,4,12,t,0.7467767000198364,None,12,4,88,5,179.67630369996186,,179.66142550000222,179.67630369996186,180.6596589999972,180.6596589999972,180.67640160000883,181.41095049999421,t,0.7467767000198364,None,506308,001,2024-11-18_12h05.59.129,delay_discounting,2024.2.1post4,60.142742787407435,2024-11-18 12h06.07.015547 +0530,
15,35,13,89,5,12,l,0.35933329997351393,None,12,5,89,1,181.4271454999689,,181.4154026999604,181.4271454999689,182.4265677999938,182.4265677999938,182.4265677999938,182.7950594999711,l,0.35933329997351393,None,506308,001,2024-11-18_12h05.59.129,delay_discounting,2024.2.1post4,60.142742787407435,2024-11-18 12h06.07.015547 +0530,
49,60,89,90,6,12,l,0.31371339998440817,None,12,6,90,4,182.81479269999545,,182.80205940001179,182.81479269999545,183.80187119997572,183.80187119997572,183.81843889999436,184.12009959999705,l,0.31371339998440817,None,506308,001,2024-11-18_12h05.59.129,delay_discounting,2024.2.1post4,60.142742787407435,2024-11-18 12h06.07.015547 +0530,
27,50,21,91,0,13,t,0.1555223999894224,None,13,0,91,2,184.14315309998346,,184.1277874999796,184.14315309998346,185.12661659996957,185.12661659996957,185.14321319997543,185.29507120000198,t,0.1555223999894224,None,506308,001,2024-11-18_12h05.59.129,delay_discounting,2024.2.1post4,60.142742787407435,2024-11-18 12h06.07.015547 +0530,
11,30,7,92,1,13,t,0.43866799998795614,None,13,1,92,0,185.3149470000062,,185.3024049999658,185.3149470000062,186.3019467999693,186.3019467999693,186.31858429999556,186.7536764999968,t,0.43866799998795614,None,506308,001,2024-11-18_12h05.59.129,delay_discounting,2024.2.1post4,60.142742787407435,2024-11-18 12h06.07.015547 +0530,
49,60,89,93,2,13,t,0.8483095999690704,None,13,2,93,4,186.77666229999159,,186.7626097999746,186.77666229999159,187.7599735999829,187.7599735999829,187.77668419998372,188.61188320000656,t,0.8483095999690704,None,506308,001,2024-11-18_12h05.59.129,delay_discounting,2024.2.1post4,60.142742787407435,2024-11-18 12h06.07.015547 +0530,
78,80,162,94,3,13,t,0.4609043000382371,None,13,3,94,6,188.63143129996024,,188.61905969999498,188.63143129996024,189.6187779000029,189.6187779000029,189.6353747000103,190.0871221999987,t,0.4609043000382371,None,506308,001,2024-11-18_12h05.59.129,delay_discounting,2024.2.1post4,60.142742787407435,2024-11-18 12h06.07.015547 +0530,
15,35,13,95,4,13,t,0.5359190999879502,None,13,4,95,1,190.11011740000686,,190.09486939996714,190.11011740000686,191.0937230999698,191.0937230999698,191.1101112999604,191.6452848999761,t,0.5359190999879502,None,506308,001,2024-11-18_12h05.59.129,delay_discounting,2024.2.1post4,60.142742787407435,2024-11-18 12h06.07.015547 +0530,
67,75,119,96,5,13,l,1.7123356999945827,None,13,5,96,5,191.66462019999744,,191.65223339997465,191.66462019999744,192.65229709999403,192.65229709999403,192.66887809999753,194.3706613999675,l,1.7123356999945827,None,506308,001,2024-11-18_12h05.59.129,delay_discounting,2024.2.1post4,60.142742787407435,2024-11-18 12h06.07.015547 +0530,
40,55,62,97,6,13,l,0.5520757000194862,None,13,6,97,3,194.3936636999715,,194.3786561000161,194.3936636999715,195.37706560001243,195.37706560001243,195.39365639997413,195.9457292999723,l,0.5520757000194862,None,506308,001,2024-11-18_12h05.59.129,delay_discounting,2024.2.1post4,60.142742787407435,2024-11-18 12h06.07.015547 +0530,
27,50,21,98,0,14,l,0.5025768000050448,None,14,0,98,2,195.9648178999778,,195.95244889997412,195.9648178999778,196.95248290000018,196.95248290000018,196.9690381999826,197.47067939996487,l,0.5025768000050448,None,506308,001,2024-11-18_12h05.59.129,delay_discounting,2024.2.1post4,60.142742787407435,2024-11-18 12h06.07.015547 +0530,
78,80,162,99,1,14,l,1.6489978999597952,None,14,1,99,6,197.4937359999749,,197.47843919997104,197.4937359999749,198.4771899000043,198.4771899000043,198.49380259995814,200.12922599999,l,1.6489978999597952,None,506308,001,2024-11-18_12h05.59.129,delay_discounting,2024.2.1post4,60.142742787407435,2024-11-18 12h06.07.015547 +0530,
49,60,89,100,2,14,t,1.4808216000092216,None,14,2,100,4,200.14897679997375,,200.13665010000113,200.14897679997375,201.1359458999941,201.1359458999941,201.15256229997613,202.62130489997799,t,1.4808216000092216,None,506308,001,2024-11-18_12h05.59.129,delay_discounting,2024.2.1post4,60.142742787407435,2024-11-18 12h06.07.015547 +0530,
11,30,7,101,3,14,l,3.6214021000196226,None,14,3,101,0,202.643984299968,,202.63018809998175,202.643984299968,203.6274340999662,203.6274340999662,203.64402659999905,207.2626488999813,l,3.6214021000196226,None,506308,001,2024-11-18_12h05.59.129,delay_discounting,2024.2.1post4,60.142742787407435,2024-11-18 12h06.07.015547 +0530,
67,75,119,102,4,14,t,0.288029599993024,None,14,4,102,5,207.28262040001573,,207.26936430000933,207.28262040001573,208.26961899996968,208.26961899996968,208.28620390000287,208.5713812999893,t,0.288029599993024,None,506308,001,2024-11-18_12h05.59.129,delay_discounting,2024.2.1post4,60.142742787407435,2024-11-18 12h06.07.015547 +0530,
15,35,13,103,5,14,l,0.3782483999966644,None,14,5,103,1,208.59426340000937,,208.5795215999824,208.59426340000937,209.57774189999327,209.57774189999327,209.594357999973,209.96278979995986,l,0.3782483999966644,None,506308,001,2024-11-18_12h05.59.129,delay_discounting,2024.2.1post4,60.142742787407435,2024-11-18 12h06.07.015547 +0530,
40,55,62,104,6,14,t,0.2939803999615833,None,14,6,104,3,209.98162440001033,,209.9695116999792,209.98162440001033,210.97778149996884,210.97778149996884,210.99440729996422,211.2801032999996,t,0.2939803999615833,None,506308,001,2024-11-18_12h05.59.129,delay_discounting,2024.2.1post4,60.142742787407435,2024-11-18 12h06.07.015547 +0530,
