thisN,thisTrialN,thisRepN,mouse.x,mouse.y,mouse.leftButton,mouse.midButton,mouse.rightButton,mouse.time,mouse.clicked_name,trials.thisRepN,trials.thisTrialN,trials.thisN,trials.thisIndex,thisRow.t,notes,num_distr,trial.started,fixtion.started,target.started,mouse.started,trial.stopped,trials.mouse.x,trials.mouse.y,trials.mouse.leftButton,trials.mouse.midButton,trials.mouse.rightButton,trials.mouse.time,trials.mouse.clicked_name,participant,session,date,expName,psychopyVersion,frameRate,expStart,
0,0,0,[-0.16333333333333333],[-0.43833333333333335],[1],[0],[0],[12.872468300000037],['target'],0,0,0,0,0.06682069999988016,,5,0.05211959999996907,0.06682069999988016,0.06682069999988016,0.05186380000009194,12.925110099999984,[-0.16333333333333333],[-0.43833333333333335],[1],[0],[0],[12.872468300000037],['target'],104309,001,2024-10-10_13h58.29.525,visual search,2024.2.1post4,60.023144924646346,2024-10-10 13h59.11.346411 +0530,
1,0,1,[0.365],[0.11833333333333333],[1],[0],[0],[2.4329682999998568],['target'],1,0,1,0,12.952374700000064,,5,12.94115839999995,12.952374700000064,12.952374700000064,0.01584339999999429,15.374572599999965,[0.365],[0.11833333333333333],[1],[0],[0],[2.4329682999998568],['target'],104309,001,2024-10-10_13h58.29.525,visual search,2024.2.1post4,60.023144924646346,2024-10-10 13h59.11.346411 +0530,
2,0,2,[-0.016666666666666666],[0.34],[1],[0],[0],[2.5205645999999433],['target'],2,0,2,0,15.421570799999927,,10,15.403970099999924,15.421570799999927,15.421570799999927,0.02920170000015787,17.924947299999985,[-0.016666666666666666],[0.34],[1],[0],[0],[2.5205645999999433],['target'],104309,001,2024-10-10_13h58.29.525,visual search,2024.2.1post4,60.023144924646346,2024-10-10 13h59.11.346411 +0530,
3,0,3,[0.43],[0.17166666666666666],[1],[0],[0],[2.0667585000001054],['target'],3,0,3,0,17.953174999999874,,5,17.94143669999994,17.953174999999874,17.953174999999874,0.016322500000114815,20.008632999999918,[0.43],[0.17166666666666666],[1],[0],[0],[2.0667585000001054],['target'],104309,001,2024-10-10_13h58.29.525,visual search,2024.2.1post4,60.023144924646346,2024-10-10 13h59.11.346411 +0530,
4,0,4,[0.20833333333333334],[-0.43833333333333335],[1],[0],[0],[3.386068699999896],['target'],4,0,4,0,20.035969399999885,,5,20.02288640000006,20.035969399999885,20.035969399999885,0.01408329999981106,23.409409500000038,[0.20833333333333334],[-0.43833333333333335],[1],[0],[0],[3.386068699999896],['target'],104309,001,2024-10-10_13h58.29.525,visual search,2024.2.1post4,60.023144924646346,2024-10-10 13h59.11.346411 +0530,
5,0,5,[0.34833333333333333],[-0.025],[1],[0],[0],[1.7086536000001615],['target'],5,0,5,0,23.450792699999965,,10,23.435653199999933,23.450792699999965,23.450792699999965,0.026071499999943626,25.14483169999994,[0.34833333333333333],[-0.025],[1],[0],[0],[1.7086536000001615],['target'],104309,001,2024-10-10_13h58.29.525,visual search,2024.2.1post4,60.023144924646346,2024-10-10 13h59.11.346411 +0530,
6,0,6,[0.15666666666666668],[-0.006666666666666667],[1],[0],[0],[1.418259799999987],['target'],6,0,6,0,25.215902899999946,,10,25.192342399999916,25.215902899999946,25.215902899999946,0.04718619999994189,26.6110991999999,[0.15666666666666668],[-0.006666666666666667],[1],[0],[0],[1.418259799999987],['target'],104309,001,2024-10-10_13h58.29.525,visual search,2024.2.1post4,60.023144924646346,2024-10-10 13h59.11.346411 +0530,
7,0,7,[-0.095],[0.4216666666666667],[1],[0],[0],[2.101342700000032],['target'],7,0,7,0,26.685833999999886,,10,26.65880399999992,26.685833999999886,26.685833999999886,0.04747059999999692,28.760615299999927,[-0.095],[0.4216666666666667],[1],[0],[0],[2.101342700000032],['target'],104309,001,2024-10-10_13h58.29.525,visual search,2024.2.1post4,60.023144924646346,2024-10-10 13h59.11.346411 +0530,
8,0,8,[0.195],[-0.27],[1],[0],[0],[2.1899100000000544],['target'],8,0,8,0,28.80520189999993,,5,28.78655129999993,28.80520189999993,28.80520189999993,0.025642300000072282,30.97692559999996,[0.195],[-0.27],[1],[0],[0],[2.1899100000000544],['target'],104309,001,2024-10-10_13h58.29.525,visual search,2024.2.1post4,60.023144924646346,2024-10-10 13h59.11.346411 +0530,
9,0,9,[0.13833333333333334],[0.3433333333333333],[1],[0],[0],[2.0582500000000437],['target'],9,0,9,0,31.0389318,,10,31.01857610000002,31.0389318,31.0389318,0.041457899999841175,33.077386799999886,[0.13833333333333334],[0.3433333333333333],[1],[0],[0],[2.0582500000000437],['target'],104309,001,2024-10-10_13h58.29.525,visual search,2024.2.1post4,60.023144924646346,2024-10-10 13h59.11.346411 +0530,
10,0,10,[-0.31333333333333335],[-0.2816666666666667],[1],[0],[0],[2.245565800000122],['target'],10,0,10,0,33.10987660000001,,5,33.096863100000064,33.10987660000001,33.10987660000001,0.019235900000012407,35.34292920000007,[-0.31333333333333335],[-0.2816666666666667],[1],[0],[0],[2.245565800000122],['target'],104309,001,2024-10-10_13h58.29.525,visual search,2024.2.1post4,60.023144924646346,2024-10-10 13h59.11.346411 +0530,
11,0,11,[0.43166666666666664],[-0.4633333333333333],[1],[0],[0],[4.25571130000003],['target'],11,0,11,0,35.38495020000005,,10,35.36972700000001,35.38495020000005,35.38495020000005,0.026656799999955183,39.62585480000007,[0.43166666666666664],[-0.4633333333333333],[1],[0],[0],[4.25571130000003],['target'],104309,001,2024-10-10_13h58.29.525,visual search,2024.2.1post4,60.023144924646346,2024-10-10 13h59.11.346411 +0530,
12,0,12,[0.38333333333333336],[0.4766666666666667],[1],[0],[0],[2.908238699999856],['target'],12,0,12,0,39.66570120000006,,10,39.65182179999988,39.66570120000006,39.66570120000006,0.025809100000060425,42.560506999999916,[0.38333333333333336],[0.4766666666666667],[1],[0],[0],[2.908238699999856],['target'],104309,001,2024-10-10_13h58.29.525,visual search,2024.2.1post4,60.023144924646346,2024-10-10 13h59.11.346411 +0530,
13,0,13,[0.4633333333333333],[0.2833333333333333],[1],[0],[0],[1.8691628000001401],['target'],13,0,13,0,42.60579209999992,,10,42.59108470000001,42.60579209999992,42.60579209999992,0.030359099999941463,44.46066330000008,[0.4633333333333333],[0.2833333333333333],[1],[0],[0],[1.8691628000001401],['target'],104309,001,2024-10-10_13h58.29.525,visual search,2024.2.1post4,60.023144924646346,2024-10-10 13h59.11.346411 +0530,
14,0,14,[0.25666666666666665],[-0.2733333333333333],[1],[0],[0],[2.5794959999998355],['target'],14,0,14,0,44.49489560000006,,5,44.479752499999904,44.49489560000006,44.49489560000006,0.018895700000030047,47.05962679999993,[0.25666666666666665],[-0.2733333333333333],[1],[0],[0],[2.5794959999998355],['target'],104309,001,2024-10-10_13h58.29.525,visual search,2024.2.1post4,60.023144924646346,2024-10-10 13h59.11.346411 +0530,
15,0,15,[0.018333333333333333],[0.35333333333333333],[1],[0],[0],[2.157352800000126],['target'],15,0,15,0,47.09999960000005,,10,47.08522659999994,47.09999960000005,47.09999960000005,0.025465100000019447,49.242953299999954,[0.018333333333333333],[0.35333333333333333],[1],[0],[0],[2.157352800000126],['target'],104309,001,2024-10-10_13h58.29.525,visual search,2024.2.1post4,60.023144924646346,2024-10-10 13h59.11.346411 +0530,
16,0,16,[0.41],[-0.20166666666666666],[1],[0],[0],[2.6741355999999996],['target'],16,0,16,0,49.284367700000075,,10,49.26879609999992,49.284367700000075,49.284367700000075,0.025671399999964706,51.94336380000004,[0.41],[-0.20166666666666666],[1],[0],[0],[2.6741355999999996],['target'],104309,001,2024-10-10_13h58.29.525,visual search,2024.2.1post4,60.023144924646346,2024-10-10 13h59.11.346411 +0530,
17,0,17,[-0.09166666666666666],[0.06833333333333333],[1],[0],[0],[2.051341500000035],['target'],17,0,17,0,51.9710333999999,,5,51.959317300000066,51.9710333999999,51.9710333999999,0.015723999999863736,54.01108969999996,[-0.09166666666666666],[0.06833333333333333],[1],[0],[0],[2.051341500000035],['target'],104309,001,2024-10-10_13h58.29.525,visual search,2024.2.1post4,60.023144924646346,2024-10-10 13h59.11.346411 +0530,
18,0,18,[0.10833333333333334],[0.11333333333333333],[1],[0],[0],[1.7662409000001844],['target'],18,0,18,0,54.03802219999989,,5,54.026905499999884,54.03802219999989,54.03802219999989,0.01562210000020059,55.79361670000003,[0.10833333333333334],[0.11333333333333333],[1],[0],[0],[1.7662409000001844],['target'],104309,001,2024-10-10_13h58.29.525,visual search,2024.2.1post4,60.023144924646346,2024-10-10 13h59.11.346411 +0530,
19,0,19,[-0.2866666666666667],[0.36833333333333335],[1],[0],[0],[1.7373826999998983],['target'],19,0,19,0,55.836817899999915,,10,55.822072299999945,55.836817899999915,55.836817899999915,0.028271299999914845,57.559889800000064,[-0.2866666666666667],[0.36833333333333335],[1],[0],[0],[1.7373826999998983],['target'],104309,001,2024-10-10_13h58.29.525,visual search,2024.2.1post4,60.023144924646346,2024-10-10 13h59.11.346411 +0530,
20,0,20,[0.23333333333333334],[-0.35],[1],[0],[0],[2.0700762000001305],['target'],20,0,20,0,57.587545299999874,,5,57.573380799999995,57.587545299999874,57.587545299999874,0.013304599999855782,59.64396779999993,[0.23333333333333334],[-0.35],[1],[0],[0],[2.0700762000001305],['target'],104309,001,2024-10-10_13h58.29.525,visual search,2024.2.1post4,60.023144924646346,2024-10-10 13h59.11.346411 +0530,
21,0,21,[0.215],[0.4716666666666667],[1],[0],[0],[1.5352927999999793],['target'],21,0,21,0,59.69640780000009,,10,59.67458910000005,59.69640780000009,59.69640780000009,0.030359999999973297,61.21028810000007,[0.215],[0.4716666666666667],[1],[0],[0],[1.5352927999999793],['target'],104309,001,2024-10-10_13h58.29.525,visual search,2024.2.1post4,60.023144924646346,2024-10-10 13h59.11.346411 +0530,
22,0,22,[0.3233333333333333],[0.058333333333333334],[1],[0],[0],[1.5515508999999383],['target'],22,0,22,0,61.237754100000075,,5,61.22619089999989,61.237754100000075,61.237754100000075,0.015691099999912694,62.7781579,[0.3233333333333333],[0.058333333333333334],[1],[0],[0],[1.5515508999999383],['target'],104309,001,2024-10-10_13h58.29.525,visual search,2024.2.1post4,60.023144924646346,2024-10-10 13h59.11.346411 +0530,
23,0,23,[-0.27166666666666667],[0.4533333333333333],[1],[0],[0],[1.7260074999999233],['target'],23,0,23,0,62.81484580000006,,5,62.80071290000001,62.81484580000006,62.81484580000006,0.022374799999852257,64.52716669999995,[-0.27166666666666667],[0.4533333333333333],[1],[0],[0],[1.7260074999999233],['target'],104309,001,2024-10-10_13h58.29.525,visual search,2024.2.1post4,60.023144924646346,2024-10-10 13h59.11.346411 +0530,
24,0,24,[-0.425],[0.3516666666666667],[1],[0],[0],[1.6670151999999234],['target'],24,0,24,0,64.5545368999999,,5,64.54319549999991,64.5545368999999,64.5545368999999,0.01583630000004632,66.21065500000009,[-0.425],[0.3516666666666667],[1],[0],[0],[1.6670151999999234],['target'],104309,001,2024-10-10_13h58.29.525,visual search,2024.2.1post4,60.023144924646346,2024-10-10 13h59.11.346411 +0530,
25,0,25,[-0.49166666666666664],[0.24833333333333332],[1],[0],[0],[1.4023136999999224],['target'],25,0,25,0,66.23792320000007,,5,66.22458030000007,66.23792320000007,66.23792320000007,0.013789399999950547,67.62729749999994,[-0.49166666666666664],[0.24833333333333332],[1],[0],[0],[1.4023136999999224],['target'],104309,001,2024-10-10_13h58.29.525,visual search,2024.2.1post4,60.023144924646346,2024-10-10 13h59.11.346411 +0530,
26,0,26,[-0.23333333333333334],[0.42833333333333334],[1],[0],[0],[1.7540807999998833],['target'],26,0,26,0,67.65464750000001,,5,67.64052700000002,67.65464750000001,67.65464750000001,0.013093700000126773,69.39507679999997,[-0.23333333333333334],[0.42833333333333334],[1],[0],[0],[1.7540807999998833],['target'],104309,001,2024-10-10_13h58.29.525,visual search,2024.2.1post4,60.023144924646346,2024-10-10 13h59.11.346411 +0530,
27,0,27,[-0.205],[0.31833333333333336],[1],[0],[0],[1.2858780999999908],['target'],27,0,27,0,69.43874129999995,,10,69.42383429999995,69.43874129999995,69.43874129999995,0.02859289999992143,70.7101447,[-0.205],[0.31833333333333336],[1],[0],[0],[1.2858780999999908],['target'],104309,001,2024-10-10_13h58.29.525,visual search,2024.2.1post4,60.023144924646346,2024-10-10 13h59.11.346411 +0530,
28,0,28,[-0.36833333333333335],[0.43833333333333335],[1],[0],[0],[1.4871189000000413],['target'],28,0,28,0,70.73809950000009,,5,70.72351230000004,70.73809950000009,70.73809950000009,0.013178000000152679,72.21107370000004,[-0.36833333333333335],[0.43833333333333335],[1],[0],[0],[1.4871189000000413],['target'],104309,001,2024-10-10_13h58.29.525,visual search,2024.2.1post4,60.023144924646346,2024-10-10 13h59.11.346411 +0530,
29,0,29,[0.36666666666666664],[-0.2683333333333333],[1],[0],[0],[2.134141299999783],['target'],29,0,29,0,72.23858560000008,,5,72.22689549999996,72.23858560000008,72.23858560000008,0.01563399999986359,74.36148019999996,[0.36666666666666664],[-0.2683333333333333],[1],[0],[0],[2.134141299999783],['target'],104309,001,2024-10-10_13h58.29.525,visual search,2024.2.1post4,60.023144924646346,2024-10-10 13h59.11.346411 +0530,
30,0,30,[0.13166666666666665],[-0.155],[1],[0],[0],[1.7554539000000204],['target'],30,0,30,0,74.40319709999994,,10,74.38838209999994,74.40319709999994,74.40319709999994,0.02673329999993257,76.14422139999988,[0.13166666666666665],[-0.155],[1],[0],[0],[1.7554539000000204],['target'],104309,001,2024-10-10_13h58.29.525,visual search,2024.2.1post4,60.023144924646346,2024-10-10 13h59.11.346411 +0530,
31,0,31,[0.21166666666666667],[-0.15166666666666667],[1],[0],[0],[1.4867624999999407],[None],31,0,31,0,76.17164810000008,,5,76.15799109999989,76.17164810000008,76.17164810000008,0.013592900000048758,77.64522229999989,[0.21166666666666667],[-0.15166666666666667],[1],[0],[0],[1.4867624999999407],[None],104309,001,2024-10-10_13h58.29.525,visual search,2024.2.1post4,60.023144924646346,2024-10-10 13h59.11.346411 +0530,
32,0,32,[-0.44],[-0.17166666666666666],[1],[0],[0],[2.399970499999881],['target'],32,0,32,0,77.67215710000005,,5,77.66084819999992,77.67215710000005,77.67215710000005,0.01546730000018215,80.0612673999999,[-0.44],[-0.17166666666666666],[1],[0],[0],[2.399970499999881],['target'],104309,001,2024-10-10_13h58.29.525,visual search,2024.2.1post4,60.023144924646346,2024-10-10 13h59.11.346411 +0530,
33,0,33,[-0.325],[-0.33],[1],[0],[0],[1.5365027000000282],['target'],33,0,33,0,80.08850209999991,,5,80.07450879999988,80.08850209999991,80.08850209999991,0.013101600000027247,81.61141859999998,[-0.325],[-0.33],[1],[0],[0],[1.5365027000000282],['target'],104309,001,2024-10-10_13h58.29.525,visual search,2024.2.1post4,60.023144924646346,2024-10-10 13h59.11.346411 +0530,
34,0,34,[0.365],[0.425],[1],[0],[0],[2.5683681999998953],['target'],34,0,34,0,81.63855050000006,,5,81.62504689999992,81.63855050000006,81.63855050000006,0.013498100000106206,84.19383870000001,[0.365],[0.425],[1],[0],[0],[2.5683681999998953],['target'],104309,001,2024-10-10_13h58.29.525,visual search,2024.2.1post4,60.023144924646346,2024-10-10 13h59.11.346411 +0530,
35,0,35,[0.4116666666666667],[0.205],[1],[0],[0],[1.4411939999999959],['target'],35,0,35,0,84.23470980000002,,10,84.22002139999995,84.23470980000002,84.23470980000002,0.026029800000060277,85.66165569999998,[0.4116666666666667],[0.205],[1],[0],[0],[1.4411939999999959],['target'],104309,001,2024-10-10_13h58.29.525,visual search,2024.2.1post4,60.023144924646346,2024-10-10 13h59.11.346411 +0530,
36,0,36,[0.01],[0.05],[1],[0],[0],[6.131530999999995],['target'],36,0,36,0,85.7168795,,10,85.69605139999999,85.7168795,85.7168795,0.03422030000001541,91.8280428999999,[0.01],[0.05],[1],[0],[0],[6.131530999999995],['target'],104309,001,2024-10-10_13h58.29.525,visual search,2024.2.1post4,60.023144924646346,2024-10-10 13h59.11.346411 +0530,
37,0,37,[-0.48833333333333334],[0.285],[1],[0],[0],[1.4783300000001418],['target'],37,0,37,0,91.86284339999997,,5,91.84978909999995,91.86284339999997,91.86284339999997,0.02157460000012179,93.3285292999999,[-0.48833333333333334],[0.285],[1],[0],[0],[1.4783300000001418],['target'],104309,001,2024-10-10_13h58.29.525,visual search,2024.2.1post4,60.023144924646346,2024-10-10 13h59.11.346411 +0530,
38,0,38,[0.385],[-0.12333333333333334],[1],[0],[0],[2.46973150000008],['target'],38,0,38,0,93.35570830000006,,5,93.34170919999997,93.35570830000006,93.35570830000006,0.013050099999873055,95.81187150000005,[0.385],[-0.12333333333333334],[1],[0],[0],[2.46973150000008],['target'],104309,001,2024-10-10_13h58.29.525,visual search,2024.2.1post4,60.023144924646346,2024-10-10 13h59.11.346411 +0530,
39,0,39,[0.26166666666666666],[0.4216666666666667],[1],[0],[0],[1.4203211000001374],['target'],39,0,39,0,95.85484659999997,,10,95.84026199999994,95.85484659999997,95.85484659999997,0.028200599999991027,97.26099040000008,[0.26166666666666666],[0.4216666666666667],[1],[0],[0],[1.4203211000001374],['target'],104309,001,2024-10-10_13h58.29.525,visual search,2024.2.1post4,60.023144924646346,2024-10-10 13h59.11.346411 +0530,
40,0,40,[0.31166666666666665],[0.04],[1],[0],[0],[1.8874739000000318],['target'],40,0,40,0,97.28922620000003,,5,97.27418560000001,97.28922620000003,97.28922620000003,0.013026400000171634,99.16207400000008,[0.31166666666666665],[0.04],[1],[0],[0],[1.8874739000000318],['target'],104309,001,2024-10-10_13h58.29.525,visual search,2024.2.1post4,60.023144924646346,2024-10-10 13h59.11.346411 +0530,
41,0,41,[0.265],[0.19],[1],[0],[0],[1.4201104999999643],['target'],41,0,41,0,99.18920389999994,,5,99.17501010000001,99.18920389999994,99.18920389999994,0.012805800000023737,100.5955199,[0.265],[0.19],[1],[0],[0],[1.4201104999999643],['target'],104309,001,2024-10-10_13h58.29.525,visual search,2024.2.1post4,60.023144924646346,2024-10-10 13h59.11.346411 +0530,
42,0,42,[-0.32166666666666666],[-0.07833333333333334],[1],[0],[0],[3.156328799999983],['target'],42,0,42,0,100.63808180000001,,10,100.62348339999994,100.63808180000001,100.63808180000001,0.027805400000033842,103.7803108999999,[-0.32166666666666666],[-0.07833333333333334],[1],[0],[0],[3.156328799999983],['target'],104309,001,2024-10-10_13h58.29.525,visual search,2024.2.1post4,60.023144924646346,2024-10-10 13h59.11.346411 +0530,
43,0,43,[0.435],[-0.36333333333333334],[1],[0],[0],[2.5208368999999493],['target'],43,0,43,0,103.82142750000003,,10,103.80663750000008,103.82142750000003,103.82142750000003,0.02607239999997546,106.32797740000001,[0.435],[-0.36333333333333334],[1],[0],[0],[2.5208368999999493],['target'],104309,001,2024-10-10_13h58.29.525,visual search,2024.2.1post4,60.023144924646346,2024-10-10 13h59.11.346411 +0530,
44,0,44,[0.16333333333333333],[0.465],[1],[0],[0],[2.2033058999998048],['target'],44,0,44,0,106.37558169999988,,10,106.35979640000005,106.37558169999988,106.37558169999988,0.0316454999999678,108.56362050000007,[0.16333333333333333],[0.465],[1],[0],[0],[2.2033058999998048],['target'],104309,001,2024-10-10_13h58.29.525,visual search,2024.2.1post4,60.023144924646346,2024-10-10 13h59.11.346411 +0530,
45,0,45,[-0.09],[0.16333333333333333],[1],[0],[0],[2.664367600000105],['target'],45,0,45,0,108.61327340000003,,10,108.59825769999998,108.61327340000003,108.61327340000003,0.034405299999889394,111.26308109999991,[-0.09],[0.16333333333333333],[1],[0],[0],[2.664367600000105],['target'],104309,001,2024-10-10_13h58.29.525,visual search,2024.2.1post4,60.023144924646346,2024-10-10 13h59.11.346411 +0530,
46,0,46,[-0.26],[0.34],[1],[0],[0],[1.970638000000008],['target'],46,0,46,0,111.30609600000003,,10,111.29145760000006,111.30609600000003,111.30609600000003,0.028155799999922237,113.26260060000004,[-0.26],[0.34],[1],[0],[0],[1.970638000000008],['target'],104309,001,2024-10-10_13h58.29.525,visual search,2024.2.1post4,60.023144924646346,2024-10-10 13h59.11.346411 +0530,
47,0,47,[-0.2633333333333333],[0.38333333333333336],[1],[0],[0],[3.023912899999914],['target'],47,0,47,0,113.30335549999995,,10,113.28846429999999,113.30335549999995,113.30335549999995,0.02570330000003196,116.31280599999991,[-0.2633333333333333],[0.38333333333333336],[1],[0],[0],[3.023912899999914],['target'],104309,001,2024-10-10_13h58.29.525,visual search,2024.2.1post4,60.023144924646346,2024-10-10 13h59.11.346411 +0530,
48,0,48,[0.3566666666666667],[0.08],[1],[0],[0],[4.518091500000082],['target'],48,0,48,0,116.34038059999989,,5,116.32901470000002,116.34038059999989,116.34038059999989,0.015968299999940427,120.84757059999993,[0.3566666666666667],[0.08],[1],[0],[0],[4.518091500000082],['target'],104309,001,2024-10-10_13h58.29.525,visual search,2024.2.1post4,60.023144924646346,2024-10-10 13h59.11.346411 +0530,
49,0,49,[0.45666666666666667],[-0.29],[1],[0],[0],[2.299145200000112],['target'],49,0,49,0,120.87788120000005,,5,120.8640057,120.87788120000005,120.87788120000005,0.016253499999947962,123.16362409999988,[0.45666666666666667],[-0.29],[1],[0],[0],[2.299145200000112],['target'],104309,001,2024-10-10_13h58.29.525,visual search,2024.2.1post4,60.023144924646346,2024-10-10 13h59.11.346411 +0530,
50,0,50,[-0.30666666666666664],[0.19666666666666666],[1],[0],[0],[3.0690572999999404],['target'],50,0,50,0,123.19028090000006,,5,123.17780519999997,123.19028090000006,123.19028090000006,0.014013299999987794,126.2473078999999,[-0.30666666666666664],[0.19666666666666666],[1],[0],[0],[3.0690572999999404],['target'],104309,001,2024-10-10_13h58.29.525,visual search,2024.2.1post4,60.023144924646346,2024-10-10 13h59.11.346411 +0530,
51,0,51,[0.01],[0.375],[1],[0],[0],[1.6835719999999128],['target'],51,0,51,0,126.27466479999998,,5,126.26366619999999,126.27466479999998,126.27466479999998,0.016182200000002922,127.94762579999997,[0.01],[0.375],[1],[0],[0],[1.6835719999999128],['target'],104309,001,2024-10-10_13h58.29.525,visual search,2024.2.1post4,60.023144924646346,2024-10-10 13h59.11.346411 +0530,
52,0,52,[0.4166666666666667],[-0.10833333333333334],[1],[0],[0],[2.581813499999953],['target'],52,0,52,0,128.00044789999993,,10,127.98023560000001,128.00044789999993,128.00044789999993,0.03247729999998228,130.56250509999995,[0.4166666666666667],[-0.10833333333333334],[1],[0],[0],[2.581813499999953],['target'],104309,001,2024-10-10_13h58.29.525,visual search,2024.2.1post4,60.023144924646346,2024-10-10 13h59.11.346411 +0530,
53,0,53,[-0.23333333333333334],[0.4116666666666667],[1],[0],[0],[2.291382899999917],['target'],53,0,53,0,130.60293890000003,,10,130.58821839999996,130.60293890000003,130.60293890000003,0.02554299999997056,132.8800108999999,[-0.23333333333333334],[0.4116666666666667],[1],[0],[0],[2.291382899999917],['target'],104309,001,2024-10-10_13h58.29.525,visual search,2024.2.1post4,60.023144924646346,2024-10-10 13h59.11.346411 +0530,
54,0,54,[-0.43833333333333335],[0.47],[1],[0],[0],[1.72362360000011],['target'],54,0,54,0,132.9211267999999,,10,132.90628829999991,132.9211267999999,132.9211267999999,0.026104300000042713,134.6303487,[-0.43833333333333335],[0.47],[1],[0],[0],[1.72362360000011],['target'],104309,001,2024-10-10_13h58.29.525,visual search,2024.2.1post4,60.023144924646346,2024-10-10 13h59.11.346411 +0530,
55,0,55,[-0.5083333333333333],[0.36],[1],[0],[0],[1.4882769999999255],['target'],55,0,55,0,134.6730121999999,,10,134.65837379999994,134.6730121999999,134.6730121999999,0.027795699999842327,136.1470829,[-0.5083333333333333],[0.36],[1],[0],[0],[1.4882769999999255],['target'],104309,001,2024-10-10_13h58.29.525,visual search,2024.2.1post4,60.023144924646346,2024-10-10 13h59.11.346411 +0530,
56,0,56,[0.09833333333333333],[0.4766666666666667],[1],[0],[0],[1.900629699999854],['target'],56,0,56,0,136.17418939999993,,5,136.1630035999999,136.17418939999993,136.17418939999993,0.015678600000001097,138.06406659999993,[0.09833333333333333],[0.4766666666666667],[1],[0],[0],[1.900629699999854],['target'],104309,001,2024-10-10_13h58.29.525,visual search,2024.2.1post4,60.023144924646346,2024-10-10 13h59.11.346411 +0530,
57,0,57,[0.115],[0.375],[1],[0],[0],[1.1842134999999416],['target'],57,0,57,0,138.09117390000006,,5,138.07990629999995,138.09117390000006,138.09117390000006,0.015676900000016758,139.26458049999997,[0.115],[0.375],[1],[0],[0],[1.1842134999999416],['target'],104309,001,2024-10-10_13h58.29.525,visual search,2024.2.1post4,60.023144924646346,2024-10-10 13h59.11.346411 +0530,
58,0,58,[-0.3333333333333333],[-0.023333333333333334],[1],[0],[0],[2.371392799999967],['target'],58,0,58,0,139.3059687,,10,139.2913423,139.3059687,139.3059687,0.026605900000049587,141.66324889999987,[-0.3333333333333333],[-0.023333333333333334],[1],[0],[0],[2.371392799999967],['target'],104309,001,2024-10-10_13h58.29.525,visual search,2024.2.1post4,60.023144924646346,2024-10-10 13h59.11.346411 +0530,
59,0,59,[0.3616666666666667],[0.49333333333333335],[1],[0],[0],[5.051262800000131],['target'],59,0,59,0,141.71187579999992,,10,141.69672949999995,141.71187579999992,141.71187579999992,0.033184500000061234,146.74842360000002,[0.3616666666666667],[0.49333333333333335],[1],[0],[0],[5.051262800000131],['target'],104309,001,2024-10-10_13h58.29.525,visual search,2024.2.1post4,60.023144924646346,2024-10-10 13h59.11.346411 +0530,
60,0,60,[-0.4633333333333333],[-0.14],[1],[0],[0],[2.731657000000041],['target'],60,0,60,0,146.80082089999996,,10,146.78247809999993,146.80082089999996,146.80082089999996,0.03389629999992394,149.5145803999999,[-0.4633333333333333],[-0.14],[1],[0],[0],[2.731657000000041],['target'],104309,001,2024-10-10_13h58.29.525,visual search,2024.2.1post4,60.023144924646346,2024-10-10 13h59.11.346411 +0530,
61,0,61,[0.24333333333333335],[0.0016666666666666668],[1],[0],[0],[2.3075301999999738],['target'],61,0,61,0,149.55566109999995,,10,149.54103039999995,149.55566109999995,149.55566109999995,0.026294700000107696,151.84894359999998,[0.24333333333333335],[0.0016666666666666668],[1],[0],[0],[2.3075301999999738],['target'],104309,001,2024-10-10_13h58.29.525,visual search,2024.2.1post4,60.023144924646346,2024-10-10 13h59.11.346411 +0530,
62,0,62,[-0.09833333333333333],[-0.20833333333333334],[1],[0],[0],[2.0508486999999604],['target'],62,0,62,0,151.8772887,,5,151.86546629999998,151.8772887,151.8772887,0.0163539000000128,153.91677249999998,[-0.09833333333333333],[-0.20833333333333334],[1],[0],[0],[2.0508486999999604],['target'],104309,001,2024-10-10_13h58.29.525,visual search,2024.2.1post4,60.023144924646346,2024-10-10 13h59.11.346411 +0530,
63,0,63,[-0.415],[-0.245],[1],[0],[0],[1.5803183000000445],['target'],63,0,63,0,153.94583190000003,,5,153.9333236,153.94583190000003,153.94583190000003,0.016438600000128645,155.5141318000001,[-0.415],[-0.245],[1],[0],[0],[1.5803183000000445],['target'],104309,001,2024-10-10_13h58.29.525,visual search,2024.2.1post4,60.023144924646346,2024-10-10 13h59.11.346411 +0530,
64,0,64,[-0.415],[-0.245],[1],[0],[0],[0.306420800000069],[None],64,0,64,0,155.5550556999999,,10,155.54026550000003,155.5550556999999,155.5550556999999,0.026008499999989,155.8471540999999,[-0.415],[-0.245],[1],[0],[0],[0.306420800000069],[None],104309,001,2024-10-10_13h58.29.525,visual search,2024.2.1post4,60.023144924646346,2024-10-10 13h59.11.346411 +0530,
65,0,65,[-0.16],[-0.013333333333333334],[1],[0],[0],[1.4045965000000251],['target'],65,0,65,0,155.8735013999999,,5,155.8603943999999,155.8735013999999,155.8735013999999,0.013079900000093403,157.26545050000004,[-0.16],[-0.013333333333333334],[1],[0],[0],[1.4045965000000251],['target'],104309,001,2024-10-10_13h58.29.525,visual search,2024.2.1post4,60.023144924646346,2024-10-10 13h59.11.346411 +0530,
66,0,66,[-0.37833333333333335],[0.11333333333333333],[1],[0],[0],[1.5044757999999092],['target'],66,0,66,0,157.2917069,,5,157.27861080000002,157.2917069,157.2917069,0.013020900000128677,158.78355450000004,[-0.37833333333333335],[0.11333333333333333],[1],[0],[0],[1.5044757999999092],['target'],104309,001,2024-10-10_13h58.29.525,visual search,2024.2.1post4,60.023144924646346,2024-10-10 13h59.11.346411 +0530,
67,0,67,[-0.12666666666666668],[-0.19166666666666668],[1],[0],[0],[1.8133499999999003],['target'],67,0,67,0,158.83308820000002,,10,158.81731990000003,158.83308820000002,158.83308820000002,0.03360070000007909,160.63112079999996,[-0.12666666666666668],[-0.19166666666666668],[1],[0],[0],[1.8133499999999003],['target'],104309,001,2024-10-10_13h58.29.525,visual search,2024.2.1post4,60.023144924646346,2024-10-10 13h59.11.346411 +0530,
68,0,68,[0.16833333333333333],[-0.2],[1],[0],[0],[1.5377485999999863],['target'],68,0,68,0,160.67427249999992,,10,160.65954280000005,160.67427249999992,160.67427249999992,0.028195599999889964,162.19781199999989,[0.16833333333333333],[-0.2],[1],[0],[0],[1.5377485999999863],['target'],104309,001,2024-10-10_13h58.29.525,visual search,2024.2.1post4,60.023144924646346,2024-10-10 13h59.11.346411 +0530,
69,0,69,[-0.5033333333333333],[-0.3],[1],[0],[0],[2.131846499999938],['target'],69,0,69,0,162.25088269999992,,10,162.23236240000006,162.25088269999992,162.25088269999992,0.034398600000031365,164.36459979999995,[-0.5033333333333333],[-0.3],[1],[0],[0],[2.131846499999938],['target'],104309,001,2024-10-10_13h58.29.525,visual search,2024.2.1post4,60.023144924646346,2024-10-10 13h59.11.346411 +0530,
70,0,70,[-0.43166666666666664],[-0.26666666666666666],[1],[0],[0],[1.2872374999999465],['target'],70,0,70,0,164.39194989999987,,5,164.3774616999999,164.39194989999987,164.39194989999987,0.012693299999909868,165.66512289999991,[-0.43166666666666664],[-0.26666666666666666],[1],[0],[0],[1.2872374999999465],['target'],104309,001,2024-10-10_13h58.29.525,visual search,2024.2.1post4,60.023144924646346,2024-10-10 13h59.11.346411 +0530,
71,0,71,[-0.5066666666666667],[-0.18166666666666667],[1],[0],[0],[1.2412653000001228],['target'],71,0,71,0,165.70547659999988,,10,165.69080789999998,165.70547659999988,165.70547659999988,0.025558000000046377,166.93251450000002,[-0.5066666666666667],[-0.18166666666666667],[1],[0],[0],[1.2412653000001228],['target'],104309,001,2024-10-10_13h58.29.525,visual search,2024.2.1post4,60.023144924646346,2024-10-10 13h59.11.346411 +0530,
72,0,72,[0.22333333333333333],[0.075],[1],[0],[0],[1.9687518999999156],['target'],72,0,72,0,166.95883189999995,,5,166.9470033,166.95883189999995,166.95883189999995,0.01428610000016306,168.9162194999999,[0.22333333333333333],[0.075],[1],[0],[0],[1.9687518999999156],['target'],104309,001,2024-10-10_13h58.29.525,visual search,2024.2.1post4,60.023144924646346,2024-10-10 13h59.11.346411 +0530,
73,0,73,[0.43666666666666665],[0.08],[1],[0],[0],[1.5312906999999996],['target'],73,0,73,0,168.94924680000008,,5,168.9354590999999,168.94924680000008,168.94924680000008,0.01906239999993886,170.46742160000008,[0.43666666666666665],[0.08],[1],[0],[0],[1.5312906999999996],['target'],104309,001,2024-10-10_13h58.29.525,visual search,2024.2.1post4,60.023144924646346,2024-10-10 13h59.11.346411 +0530,
74,0,74,[-0.31],[0.0033333333333333335],[1],[0],[0],[2.4571769000001495],['target'],74,0,74,0,170.52850110000008,,10,170.50556430000006,170.52850110000008,170.52850110000008,0.03799270000013166,172.96312420000004,[-0.31],[0.0033333333333333335],[1],[0],[0],[2.4571769000001495],['target'],104309,001,2024-10-10_13h58.29.525,visual search,2024.2.1post4,60.023144924646346,2024-10-10 13h59.11.346411 +0530,
75,0,75,[0.085],[-0.10166666666666667],[1],[0],[0],[1.2922894999999244],['target'],75,0,75,0,173.00389369999994,,10,172.98922479999987,173.00389369999994,173.00389369999994,0.02594449999992321,174.28195699999992,[0.085],[-0.10166666666666667],[1],[0],[0],[1.2922894999999244],['target'],104309,001,2024-10-10_13h58.29.525,visual search,2024.2.1post4,60.023144924646346,2024-10-10 13h59.11.346411 +0530,
76,0,76,[-0.19166666666666668],[0.3383333333333333],[1],[0],[0],[1.6714457999999013],['target'],76,0,76,0,174.3249343,,10,174.3100038,174.3249343,174.3249343,0.02781989999994039,175.98187570000005,[-0.19166666666666668],[0.3383333333333333],[1],[0],[0],[1.6714457999999013],['target'],104309,001,2024-10-10_13h58.29.525,visual search,2024.2.1post4,60.023144924646346,2024-10-10 13h59.11.346411 +0530,
77,0,77,[0.31666666666666665],[-0.48833333333333334],[1],[0],[0],[2.955864600000041],['target'],77,0,77,0,176.02370999999994,,10,176.00908720000007,176.02370999999994,176.02370999999994,0.026998199999979988,178.96540019999998,[0.31666666666666665],[-0.48833333333333334],[1],[0],[0],[2.955864600000041],['target'],104309,001,2024-10-10_13h58.29.525,visual search,2024.2.1post4,60.023144924646346,2024-10-10 13h59.11.346411 +0530,
78,0,78,[0.4166666666666667],[-0.028333333333333332],[1],[0],[0],[2.837615499999856],['target'],78,0,78,0,179.00813089999997,,10,178.9935693,179.00813089999997,179.00813089999997,0.027935500000012325,181.83160989999988,[0.4166666666666667],[-0.028333333333333332],[1],[0],[0],[2.837615499999856],['target'],104309,001,2024-10-10_13h58.29.525,visual search,2024.2.1post4,60.023144924646346,2024-10-10 13h59.11.346411 +0530,
79,0,79,[-0.2733333333333333],[0.45666666666666667],[1],[0],[0],[2.3161998000000494],['target'],79,0,79,0,181.88497039999993,,10,181.8656208,181.88497039999993,181.88497039999993,0.03387020000013763,184.18218539999998,[-0.2733333333333333],[0.45666666666666667],[1],[0],[0],[2.3161998000000494],['target'],104309,001,2024-10-10_13h58.29.525,visual search,2024.2.1post4,60.023144924646346,2024-10-10 13h59.11.346411 +0530,
80,0,80,[0.205],[-0.225],[1],[0],[0],[2.420856599999979],['target'],80,0,80,0,184.20949999999993,,5,184.19519390000005,184.20949999999993,184.20949999999993,0.012842200000022785,186.6165274,[0.205],[-0.225],[1],[0],[0],[2.420856599999979],['target'],104309,001,2024-10-10_13h58.29.525,visual search,2024.2.1post4,60.023144924646346,2024-10-10 13h59.11.346411 +0530,
81,0,81,[-0.145],[0.045],[1],[0],[0],[2.250984600000038],['target'],81,0,81,0,186.64300580000008,,5,186.6307902000001,186.64300580000008,186.64300580000008,0.0141003000001092,188.88224489999993,[-0.145],[0.045],[1],[0],[0],[2.250984600000038],['target'],104309,001,2024-10-10_13h58.29.525,visual search,2024.2.1post4,60.023144924646346,2024-10-10 13h59.11.346411 +0530,
82,0,82,[0.023333333333333334],[0.10166666666666667],[1],[0],[0],[1.4863918999999441],['target'],82,0,82,0,188.90974899999992,,5,188.89549859999988,188.90974899999992,188.90974899999992,0.013121899999987363,190.38229739999997,[0.023333333333333334],[0.10166666666666667],[1],[0],[0],[1.4863918999999441],['target'],104309,001,2024-10-10_13h58.29.525,visual search,2024.2.1post4,60.023144924646346,2024-10-10 13h59.11.346411 +0530,
83,0,83,[-0.47333333333333333],[0.06833333333333333],[1],[0],[0],[3.517443700000058],['target'],83,0,83,0,190.40985109999997,,5,190.3981209000001,190.40985109999997,190.40985109999997,0.015638899999885325,193.91600560000006,[-0.47333333333333333],[0.06833333333333333],[1],[0],[0],[3.517443700000058],['target'],104309,001,2024-10-10_13h58.29.525,visual search,2024.2.1post4,60.023144924646346,2024-10-10 13h59.11.346411 +0530,
84,0,84,[0.13666666666666666],[-0.415],[1],[0],[0],[1.9542048000000705],['target'],84,0,84,0,193.94340979999993,,5,193.9293674999999,193.94340979999993,193.94340979999993,0.01321619999998802,195.8840327999999,[0.13666666666666666],[-0.415],[1],[0],[0],[1.9542048000000705],['target'],104309,001,2024-10-10_13h58.29.525,visual search,2024.2.1post4,60.023144924646346,2024-10-10 13h59.11.346411 +0530,
85,0,85,[-0.255],[-0.43333333333333335],[1],[0],[0],[2.970186799999965],['target'],85,0,85,0,195.9271151999999,,10,195.91199200000005,195.9271151999999,195.9271151999999,0.02777879999985089,198.88261439999997,[-0.255],[-0.43333333333333335],[1],[0],[0],[2.970186799999965],['target'],104309,001,2024-10-10_13h58.29.525,visual search,2024.2.1post4,60.023144924646346,2024-10-10 13h59.11.346411 +0530,
86,0,86,[0.43],[-0.07333333333333333],[1],[0],[0],[1.806546699999899],['target'],86,0,86,0,198.92400440000006,,10,198.90938069999993,198.92400440000006,198.92400440000006,0.026599000000032902,200.71639630000004,[0.43],[-0.07333333333333333],[1],[0],[0],[1.806546699999899],['target'],104309,001,2024-10-10_13h58.29.525,visual search,2024.2.1post4,60.023144924646346,2024-10-10 13h59.11.346411 +0530,
87,0,87,[-0.15166666666666667],[-0.09666666666666666],[1],[0],[0],[2.116751499999964],['target'],87,0,87,0,200.74419469999998,,5,200.7325456000001,200.74419469999998,200.74419469999998,0.015914900000097987,202.84973650000006,[-0.15166666666666667],[-0.09666666666666666],[1],[0],[0],[2.116751499999964],['target'],104309,001,2024-10-10_13h58.29.525,visual search,2024.2.1post4,60.023144924646346,2024-10-10 13h59.11.346411 +0530,
88,0,88,[0.08666666666666667],[-0.14666666666666667],[1],[0],[0],[1.656603099999984],['target'],88,0,88,0,202.89250349999998,,10,202.87771500000008,202.89250349999998,202.89250349999998,0.02781150000009802,204.53482080000003,[0.08666666666666667],[-0.14666666666666667],[1],[0],[0],[1.656603099999984],['target'],104309,001,2024-10-10_13h58.29.525,visual search,2024.2.1post4,60.023144924646346,2024-10-10 13h59.11.346411 +0530,
89,0,89,[-0.37166666666666665],[-0.205],[1],[0],[0],[2.375106199999891],['target'],89,0,89,0,204.59221709999997,,10,204.57493479999994,204.59221709999997,204.59221709999997,0.03993839999998272,206.95045149999987,[-0.37166666666666665],[-0.205],[1],[0],[0],[2.375106199999891],['target'],104309,001,2024-10-10_13h58.29.525,visual search,2024.2.1post4,60.023144924646346,2024-10-10 13h59.11.346411 +0530,
90,0,90,[0.43],[-0.10666666666666667],[1],[0],[0],[2.404305999999906],['target'],90,0,90,0,206.9933974999999,,10,206.9787569,206.9933974999999,206.9933974999999,0.028107099999942875,209.3835051000001,[0.43],[-0.10666666666666667],[1],[0],[0],[2.404305999999906],['target'],104309,001,2024-10-10_13h58.29.525,visual search,2024.2.1post4,60.023144924646346,2024-10-10 13h59.11.346411 +0530,
91,0,91,[-0.10333333333333333],[0.025],[1],[0],[0],[2.0878821000001153],['target'],91,0,91,0,209.4261305,,10,209.4114287,209.4261305,209.4261305,0.027702199999794175,211.49978889999988,[-0.10333333333333333],[0.025],[1],[0],[0],[2.0878821000001153],['target'],104309,001,2024-10-10_13h58.29.525,visual search,2024.2.1post4,60.023144924646346,2024-10-10 13h59.11.346411 +0530,
92,0,92,[0.31333333333333335],[0.15833333333333333],[1],[0],[0],[1.8029552000000422],['target'],92,0,92,0,211.52732360000005,,5,211.51329379999993,211.52732360000005,211.52732360000005,0.013332499999933134,213.3166971999999,[0.31333333333333335],[0.15833333333333333],[1],[0],[0],[1.8029552000000422],['target'],104309,001,2024-10-10_13h58.29.525,visual search,2024.2.1post4,60.023144924646346,2024-10-10 13h59.11.346411 +0530,
93,0,93,[0.27],[-0.2916666666666667],[1],[0],[0],[2.6245797999999922],['target'],93,0,93,0,213.35724449999998,,10,213.34252109999989,213.35724449999998,213.35724449999998,0.025699300000042058,215.96754710000005,[0.27],[-0.2916666666666667],[1],[0],[0],[2.6245797999999922],['target'],104309,001,2024-10-10_13h58.29.525,visual search,2024.2.1post4,60.023144924646346,2024-10-10 13h59.11.346411 +0530,
94,0,94,[0.16],[-0.18],[1],[0],[0],[1.831612300000188],['target'],94,0,94,0,216.00159959999996,,5,215.9864324,216.00159959999996,216.00159959999996,0.018676800000093863,217.81853219999994,[0.16],[-0.18],[1],[0],[0],[1.831612300000188],['target'],104309,001,2024-10-10_13h58.29.525,visual search,2024.2.1post4,60.023144924646346,2024-10-10 13h59.11.346411 +0530,
95,0,95,[0.07333333333333333],[0.34833333333333333],[1],[0],[0],[2.085952799999859],['target'],95,0,95,0,217.86116300000003,,10,217.84647919999998,217.86116300000003,217.86116300000003,0.027826199999935852,219.93293530000005,[0.07333333333333333],[0.34833333333333333],[1],[0],[0],[2.085952799999859],['target'],104309,001,2024-10-10_13h58.29.525,visual search,2024.2.1post4,60.023144924646346,2024-10-10 13h59.11.346411 +0530,
96,0,96,[0.295],[-0.1],[1],[0],[0],[3.3897789000000103],['target'],96,0,96,0,219.96100260000003,,5,219.94693340000003,219.96100260000003,219.96100260000003,0.01381560000004356,223.33750409999993,[0.295],[-0.1],[1],[0],[0],[3.3897789000000103],['target'],104309,001,2024-10-10_13h58.29.525,visual search,2024.2.1post4,60.023144924646346,2024-10-10 13h59.11.346411 +0530,
97,0,97,[-0.1],[0.21],[1],[0],[0],[2.136457599999858],['target'],97,0,97,0,223.4017816999999,,10,223.38038589999996,223.4017816999999,223.4017816999999,0.042591299999912735,225.51725420000002,[-0.1],[0.21],[1],[0],[0],[2.136457599999858],['target'],104309,001,2024-10-10_13h58.29.525,visual search,2024.2.1post4,60.023144924646346,2024-10-10 13h59.11.346411 +0530,
98,0,98,[-0.4766666666666667],[0.09833333333333333],[1],[0],[0],[2.4043552000000545],['target'],98,0,98,0,225.56033869999987,,10,225.54581089999988,225.56033869999987,225.56033869999987,0.02834389999998166,227.95060680000006,[-0.4766666666666667],[0.09833333333333333],[1],[0],[0],[2.4043552000000545],['target'],104309,001,2024-10-10_13h58.29.525,visual search,2024.2.1post4,60.023144924646346,2024-10-10 13h59.11.346411 +0530,
99,0,99,[0.016666666666666666],[0.27166666666666667],[1],[0],[0],[1.5253419000000576],['target'],99,0,99,0,227.99074799999994,,10,227.9760538999999,227.99074799999994,227.99074799999994,0.025274299999864525,229.50178979999987,[0.016666666666666666],[0.27166666666666667],[1],[0],[0],[1.5253419000000576],['target'],104309,001,2024-10-10_13h58.29.525,visual search,2024.2.1post4,60.023144924646346,2024-10-10 13h59.11.346411 +0530,
100,0,100,[-0.08],[-0.47833333333333333],[1],[0],[0],[2.364483199999995],['target'],100,0,100,0,229.55376069999988,,10,229.5356549999999,229.55376069999988,229.55376069999988,0.03367890000004081,231.90055589999997,[-0.08],[-0.47833333333333333],[1],[0],[0],[2.364483199999995],['target'],104309,001,2024-10-10_13h58.29.525,visual search,2024.2.1post4,60.023144924646346,2024-10-10 13h59.11.346411 +0530,
101,0,101,[0.06166666666666667],[0.3],[1],[0],[0],[1.620135899999923],['target'],101,0,101,0,231.92824410000003,,5,231.9137169999999,231.92824410000003,231.92824410000003,0.013006299999915427,233.53439830000002,[0.06166666666666667],[0.3],[1],[0],[0],[1.620135899999923],['target'],104309,001,2024-10-10_13h58.29.525,visual search,2024.2.1post4,60.023144924646346,2024-10-10 13h59.11.346411 +0530,
102,0,102,[0.27166666666666667],[-0.05],[1],[0],[0],[1.8167849999999817],['target'],102,0,102,0,233.56301170000006,,5,233.55077099999994,233.56301170000006,233.56301170000006,0.016234899999972185,235.3680577,[0.27166666666666667],[-0.05],[1],[0],[0],[1.8167849999999817],['target'],104309,001,2024-10-10_13h58.29.525,visual search,2024.2.1post4,60.023144924646346,2024-10-10 13h59.11.346411 +0530,
103,0,103,[-0.4816666666666667],[0.17833333333333334],[1],[0],[0],[1.6185456000000613],['target'],103,0,103,0,235.39497649999998,,5,235.38193290000004,235.39497649999998,235.39497649999998,0.013742899999897418,237.00086199999987,[-0.4816666666666667],[0.17833333333333334],[1],[0],[0],[1.6185456000000613],['target'],104309,001,2024-10-10_13h58.29.525,visual search,2024.2.1post4,60.023144924646346,2024-10-10 13h59.11.346411 +0530,
104,0,104,[0.21333333333333335],[0.43833333333333335],[1],[0],[0],[5.470301099999915],['target'],104,0,104,0,237.02837350000004,,5,237.01404350000007,237.02837350000004,237.02837350000004,0.013038499999993292,242.4847754,[0.21333333333333335],[0.43833333333333335],[1],[0],[0],[5.470301099999915],['target'],104309,001,2024-10-10_13h58.29.525,visual search,2024.2.1post4,60.023144924646346,2024-10-10 13h59.11.346411 +0530,
105,0,105,[-0.49],[-0.45],[1],[0],[0],[2.138324799999964],['target'],105,0,105,0,242.5271464,,10,242.51259490000007,242.5271464,242.5271464,0.027640100000098755,244.65136170000005,[-0.49],[-0.45],[1],[0],[0],[2.138324799999964],['target'],104309,001,2024-10-10_13h58.29.525,visual search,2024.2.1post4,60.023144924646346,2024-10-10 13h59.11.346411 +0530,
106,0,106,[0.023333333333333334],[0.22],[1],[0],[0],[1.7211505999998735],['target'],106,0,106,0,244.69460660000004,,10,244.67995539999993,244.69460660000004,244.69460660000004,0.02836509999997361,246.40152669999998,[0.023333333333333334],[0.22],[1],[0],[0],[1.7211505999998735],['target'],104309,001,2024-10-10_13h58.29.525,visual search,2024.2.1post4,60.023144924646346,2024-10-10 13h59.11.346411 +0530,
107,0,107,[-0.34],[0.29833333333333334],[1],[0],[0],[1.6232602999998562],['target'],107,0,107,0,246.4426208,,10,246.42802849999998,246.4426208,246.4426208,0.026339000000007218,248.05175050000003,[-0.34],[0.29833333333333334],[1],[0],[0],[1.6232602999998562],['target'],104309,001,2024-10-10_13h58.29.525,visual search,2024.2.1post4,60.023144924646346,2024-10-10 13h59.11.346411 +0530,
108,0,108,[-0.3333333333333333],[0.016666666666666666],[1],[0],[0],[1.6126515999999356],['target'],108,0,108,0,248.08434940000006,,5,248.0713341999999,248.08434940000006,248.08434940000006,0.019298199999866483,249.68438549999996,[-0.3333333333333333],[0.016666666666666666],[1],[0],[0],[1.6126515999999356],['target'],104309,001,2024-10-10_13h58.29.525,visual search,2024.2.1post4,60.023144924646346,2024-10-10 13h59.11.346411 +0530,
109,0,109,[0.4766666666666667],[-0.19666666666666666],[1],[0],[0],[1.971025599999848],['target'],109,0,109,0,249.71223280000004,,5,249.69754650000004,249.71223280000004,249.71223280000004,0.0130268000000342,251.6690263999999,[0.4766666666666667],[-0.19666666666666666],[1],[0],[0],[1.971025599999848],['target'],104309,001,2024-10-10_13h58.29.525,visual search,2024.2.1post4,60.023144924646346,2024-10-10 13h59.11.346411 +0530,
110,0,110,[0.48833333333333334],[0.3933333333333333],[1],[0],[0],[4.627919600000041],['target'],110,0,110,0,251.70122079999987,,5,251.6904758999999,251.70122079999987,251.70122079999987,0.021266900000000533,256.31883160000007,[0.48833333333333334],[0.3933333333333333],[1],[0],[0],[4.627919600000041],['target'],104309,001,2024-10-10_13h58.29.525,visual search,2024.2.1post4,60.023144924646346,2024-10-10 13h59.11.346411 +0530,
111,0,111,[-0.225],[0.13166666666666665],[1],[0],[0],[2.2749633999999332],['target'],111,0,111,0,256.3796096000001,,10,256.3596743999999,256.3796096000001,256.3796096000001,0.04069939999999406,258.63500139999996,[-0.225],[0.13166666666666665],[1],[0],[0],[2.2749633999999332],['target'],104309,001,2024-10-10_13h58.29.525,visual search,2024.2.1post4,60.023144924646346,2024-10-10 13h59.11.346411 +0530,
112,0,112,[0.17666666666666667],[0.043333333333333335],[1],[0],[0],[2.074091099999805],['target'],112,0,112,0,258.6764562999999,,10,258.66103440000006,258.6764562999999,258.6764562999999,0.025877000000036787,260.73554769999987,[0.17666666666666667],[0.043333333333333335],[1],[0],[0],[2.074091099999805],['target'],104309,001,2024-10-10_13h58.29.525,visual search,2024.2.1post4,60.023144924646346,2024-10-10 13h59.11.346411 +0530,
113,0,113,[0.03333333333333333],[0.44],[1],[0],[0],[2.6065911999999116],['target'],113,0,113,0,260.7765471,,10,260.7619273,260.7765471,260.7765471,0.026222700000062105,263.3689578000001,[0.03333333333333333],[0.44],[1],[0],[0],[2.6065911999999116],['target'],104309,001,2024-10-10_13h58.29.525,visual search,2024.2.1post4,60.023144924646346,2024-10-10 13h59.11.346411 +0530,
114,0,114,[-0.155],[0.4633333333333333],[1],[0],[0],[3.520270399999845],['target'],114,0,114,0,263.4124789,,10,263.39762139999993,263.4124789,263.4124789,0.028440600000067207,266.91828740000005,[-0.155],[0.4633333333333333],[1],[0],[0],[3.520270399999845],['target'],104309,001,2024-10-10_13h58.29.525,visual search,2024.2.1post4,60.023144924646346,2024-10-10 13h59.11.346411 +0530,
115,0,115,[-0.19833333333333333],[0.14],[1],[0],[0],[1.6745845999998892],['target'],115,0,115,0,266.959245,,10,266.9446075000001,266.959245,266.959245,0.02615660000014941,268.61964450000005,[-0.19833333333333333],[0.14],[1],[0],[0],[1.6745845999998892],['target'],104309,001,2024-10-10_13h58.29.525,visual search,2024.2.1post4,60.023144924646346,2024-10-10 13h59.11.346411 +0530,
116,0,116,[0.06666666666666667],[0.155],[1],[0],[0],[1.467131899999913],[None],116,0,116,0,268.6467911,,5,268.6355131,268.6467911,268.6467911,0.015662600000041493,270.1030106999999,[0.06666666666666667],[0.155],[1],[0],[0],[1.467131899999913],[None],104309,001,2024-10-10_13h58.29.525,visual search,2024.2.1post4,60.023144924646346,2024-10-10 13h59.11.346411 +0530,
117,0,117,[-0.27],[0.03166666666666667],[1],[0],[0],[2.3519819000000552],['target'],117,0,117,0,270.1297532000001,,5,270.1167880999999,270.1297532000001,270.1297532000001,0.013661199999887685,272.4692009999999,[-0.27],[0.03166666666666667],[1],[0],[0],[2.3519819000000552],['target'],104309,001,2024-10-10_13h58.29.525,visual search,2024.2.1post4,60.023144924646346,2024-10-10 13h59.11.346411 +0530,
118,0,118,[0.4483333333333333],[-0.3616666666666667],[1],[0],[0],[2.674169299999903],['target'],118,0,118,0,272.5112219,,10,272.4956425999999,272.5112219,272.5112219,0.026306999999860636,275.1701929999999,[0.4483333333333333],[-0.3616666666666667],[1],[0],[0],[2.674169299999903],['target'],104309,001,2024-10-10_13h58.29.525,visual search,2024.2.1post4,60.023144924646346,2024-10-10 13h59.11.346411 +0530,
119,0,119,[0.385],[0.455],[1],[0],[0],[1.6226788999999826],['target'],119,0,119,0,275.21202949999997,,10,275.1963886000001,275.21202949999997,275.21202949999997,0.02602789999991728,276.8195072000001,[0.385],[0.455],[1],[0],[0],[1.6226788999999826],['target'],104309,001,2024-10-10_13h58.29.525,visual search,2024.2.1post4,60.023144924646346,2024-10-10 13h59.11.346411 +0530,
120,0,120,[-0.265],[0.2783333333333333],[1],[0],[0],[1.7503166999999848],['target'],120,0,120,0,276.8467361999999,,5,276.8353706999999,276.8467361999999,276.8467361999999,0.015632099999947968,278.5861566000001,[-0.265],[0.2783333333333333],[1],[0],[0],[1.7503166999999848],['target'],104309,001,2024-10-10_13h58.29.525,visual search,2024.2.1post4,60.023144924646346,2024-10-10 13h59.11.346411 +0530,
121,0,121,[-0.285],[-0.1],[1],[0],[0],[1.4364404000000377],['target'],121,0,121,0,278.6134311999999,,5,278.59927679999987,278.6134311999999,278.6134311999999,0.01298399999996036,280.0361745,[-0.285],[-0.1],[1],[0],[0],[1.4364404000000377],['target'],104309,001,2024-10-10_13h58.29.525,visual search,2024.2.1post4,60.023144924646346,2024-10-10 13h59.11.346411 +0530,
122,0,122,[-0.32666666666666666],[-0.41333333333333333],[1],[0],[0],[1.8005729999999858],['target'],122,0,122,0,280.0635557999999,,5,280.05200719999993,280.0635557999999,280.0635557999999,0.015632599999889862,281.8530575,[-0.32666666666666666],[-0.41333333333333333],[1],[0],[0],[1.8005729999999858],['target'],104309,001,2024-10-10_13h58.29.525,visual search,2024.2.1post4,60.023144924646346,2024-10-10 13h59.11.346411 +0530,
123,0,123,[0.03],[-0.185],[1],[0],[0],[1.7568917999999485],['target'],123,0,123,0,281.8937384999999,,10,281.87884869999993,281.8937384999999,281.8937384999999,0.025653599999941434,283.63620530000003,[0.03],[-0.185],[1],[0],[0],[1.7568917999999485],['target'],104309,001,2024-10-10_13h58.29.525,visual search,2024.2.1post4,60.023144924646346,2024-10-10 13h59.11.346411 +0530,
124,0,124,[-0.06166666666666667],[-0.27666666666666667],[1],[0],[0],[1.4505663999998433],['target'],124,0,124,0,283.6637074999999,,5,283.6520157,283.6637074999999,283.6637074999999,0.01558829999999034,285.10300800000005,[-0.06166666666666667],[-0.27666666666666667],[1],[0],[0],[1.4505663999998433],['target'],104309,001,2024-10-10_13h58.29.525,visual search,2024.2.1post4,60.023144924646346,2024-10-10 13h59.11.346411 +0530,
125,0,125,[0.48],[-0.09833333333333333],[1],[0],[0],[1.5405405000001338],['target'],125,0,125,0,285.1435303999999,,10,285.1288978,285.1435303999999,285.1435303999999,0.025765300000102798,286.66990340000007,[0.48],[-0.09833333333333333],[1],[0],[0],[1.5405405000001338],['target'],104309,001,2024-10-10_13h58.29.525,visual search,2024.2.1post4,60.023144924646346,2024-10-10 13h59.11.346411 +0530,
126,0,126,[0.03333333333333333],[-0.07166666666666667],[1],[0],[0],[1.6516672000000199],['target'],126,0,126,0,286.69718409999996,,5,286.6858620999999,286.69718409999996,286.69718409999996,0.01572929999997541,288.338027,[0.03333333333333333],[-0.07166666666666667],[1],[0],[0],[1.6516672000000199],['target'],104309,001,2024-10-10_13h58.29.525,visual search,2024.2.1post4,60.023144924646346,2024-10-10 13h59.11.346411 +0530,
127,0,127,[0.37666666666666665],[-0.39],[1],[0],[0],[2.246992999999975],['target'],127,0,127,0,288.3696801000001,,5,288.35536290000005,288.3696801000001,288.3696801000001,0.017182900000079826,290.60273630000006,[0.37666666666666665],[-0.39],[1],[0],[0],[2.246992999999975],['target'],104309,001,2024-10-10_13h58.29.525,visual search,2024.2.1post4,60.023144924646346,2024-10-10 13h59.11.346411 +0530,
128,0,128,[-0.4266666666666667],[0.48833333333333334],[1],[0],[0],[2.8879925000001094],['target'],128,0,128,0,290.63070100000004,,5,290.61649169999987,290.63070100000004,290.63070100000004,0.013614100000040708,293.50495279999996,[-0.4266666666666667],[0.48833333333333334],[1],[0],[0],[2.8879925000001094],['target'],104309,001,2024-10-10_13h58.29.525,visual search,2024.2.1post4,60.023144924646346,2024-10-10 13h59.11.346411 +0530,
129,0,129,[-0.23],[0.17833333333333334],[1],[0],[0],[1.8232399999999416],['target'],129,0,129,0,293.5672125000001,,10,293.5464161,293.5672125000001,293.5672125000001,0.0412724000000253,295.37007289999997,[-0.23],[0.17833333333333334],[1],[0],[0],[1.8232399999999416],['target'],104309,001,2024-10-10_13h58.29.525,visual search,2024.2.1post4,60.023144924646346,2024-10-10 13h59.11.346411 +0530,
130,0,130,[0.48],[-0.185],[1],[0],[0],[1.9902002999999695],['target'],130,0,130,0,295.4129118999999,,10,295.3983363,295.4129118999999,295.4129118999999,0.028037100000119608,297.3889901,[0.48],[-0.185],[1],[0],[0],[1.9902002999999695],['target'],104309,001,2024-10-10_13h58.29.525,visual search,2024.2.1post4,60.023144924646346,2024-10-10 13h59.11.346411 +0530,
131,0,131,[-0.11],[0.36],[1],[0],[0],[2.3999386999998933],['target'],131,0,131,0,297.4152746,,5,297.4039375,297.4152746,297.4152746,0.014744399999926827,299.8043605999999,[-0.11],[0.36],[1],[0],[0],[2.3999386999998933],['target'],104309,001,2024-10-10_13h58.29.525,visual search,2024.2.1post4,60.023144924646346,2024-10-10 13h59.11.346411 +0530,
132,0,132,[-0.015],[-0.24666666666666667],[1],[0],[0],[1.4619567000002007],['target'],132,0,132,0,299.8377066999999,,5,299.82480269999996,299.8377066999999,299.8377066999999,0.020328000000063184,301.2872219000001,[-0.015],[-0.24666666666666667],[1],[0],[0],[1.4619567000002007],['target'],104309,001,2024-10-10_13h58.29.525,visual search,2024.2.1post4,60.023144924646346,2024-10-10 13h59.11.346411 +0530,
133,0,133,[0.17666666666666667],[0.48],[1],[0],[0],[2.6397411999998894],['target'],133,0,133,0,301.33001250000007,,10,301.31545630000005,301.33001250000007,301.33001250000007,0.028081200000087847,303.95569909999995,[0.17666666666666667],[0.48],[1],[0],[0],[2.6397411999998894],['target'],104309,001,2024-10-10_13h58.29.525,visual search,2024.2.1post4,60.023144924646346,2024-10-10 13h59.11.346411 +0530,
134,0,134,[-0.2916666666666667],[0.48333333333333334],[1],[0],[0],[3.6313765999998395],['target'],134,0,134,0,304.0051516000001,,10,303.98991290000004,304.0051516000001,304.0051516000001,0.03400230000011106,307.62172899999996,[-0.2916666666666667],[0.48333333333333334],[1],[0],[0],[3.6313765999998395],['target'],104309,001,2024-10-10_13h58.29.525,visual search,2024.2.1post4,60.023144924646346,2024-10-10 13h59.11.346411 +0530,
135,0,135,[-0.18333333333333332],[0.095],[1],[0],[0],[2.190384899999799],['target'],135,0,135,0,307.6630826999999,,10,307.64760320000005,307.6630826999999,307.6630826999999,0.025669200000038472,309.83843580000007,[-0.18333333333333332],[0.095],[1],[0],[0],[2.190384899999799],['target'],104309,001,2024-10-10_13h58.29.525,visual search,2024.2.1post4,60.023144924646346,2024-10-10 13h59.11.346411 +0530,
136,0,136,[0.12833333333333333],[-0.3283333333333333],[1],[0],[0],[1.7504496999999901],['target'],136,0,136,0,309.8647401999999,,5,309.85259930000007,309.8647401999999,309.8647401999999,0.013962500000161526,311.60353540000006,[0.12833333333333333],[-0.3283333333333333],[1],[0],[0],[1.7504496999999901],['target'],104309,001,2024-10-10_13h58.29.525,visual search,2024.2.1post4,60.023144924646346,2024-10-10 13h59.11.346411 +0530,
137,0,137,[-0.11],[-0.07833333333333334],[1],[0],[0],[2.2860740000000987],['target'],137,0,137,0,311.7176357999999,,10,311.7020276999999,311.7176357999999,311.7176357999999,0.09836119999999937,313.98858470000005,[-0.11],[-0.07833333333333334],[1],[0],[0],[2.2860740000000987],['target'],104309,001,2024-10-10_13h58.29.525,visual search,2024.2.1post4,60.023144924646346,2024-10-10 13h59.11.346411 +0530,
138,0,138,[0.21166666666666667],[-0.3383333333333333],[1],[0],[0],[2.185579299999972],['target'],138,0,138,0,314.0149561999999,,5,314.0025132999999,314.0149561999999,314.0149561999999,0.013723499999969135,316.18855370000006,[0.21166666666666667],[-0.3383333333333333],[1],[0],[0],[2.185579299999972],['target'],104309,001,2024-10-10_13h58.29.525,visual search,2024.2.1post4,60.023144924646346,2024-10-10 13h59.11.346411 +0530,
139,0,139,[-0.355],[-0.29],[1],[0],[0],[1.8179371999999603],['target'],139,0,139,0,316.2150185999999,,5,316.202908,316.2150185999999,316.2150185999999,0.014201100000036604,318.02125249999995,[-0.355],[-0.29],[1],[0],[0],[1.8179371999999603],['target'],104309,001,2024-10-10_13h58.29.525,visual search,2024.2.1post4,60.023144924646346,2024-10-10 13h59.11.346411 +0530,
140,0,140,[-0.30666666666666664],[-0.47333333333333333],[1],[0],[0],[2.854808599999842],['target'],140,0,140,0,318.06388300000003,,10,318.0492477999999,318.06388300000003,318.06388300000003,0.0278136000001723,320.9044787,[-0.30666666666666664],[-0.47333333333333333],[1],[0],[0],[2.854808599999842],['target'],104309,001,2024-10-10_13h58.29.525,visual search,2024.2.1post4,60.023144924646346,2024-10-10 13h59.11.346411 +0530,
141,0,141,[0.235],[-0.18],[1],[0],[0],[2.0886107000001175],['target'],141,0,141,0,320.9467648,,10,320.93229139999994,320.9467648,320.9467648,0.027575399999932415,323.02134350000006,[0.235],[-0.18],[1],[0],[0],[2.0886107000001175],['target'],104309,001,2024-10-10_13h58.29.525,visual search,2024.2.1post4,60.023144924646346,2024-10-10 13h59.11.346411 +0530,
142,0,142,[0.24666666666666667],[0.25166666666666665],[1],[0],[0],[1.552724100000205],['target'],142,0,142,0,323.04868510000006,,5,323.03722199999993,323.04868510000006,323.04868510000006,0.01565260000006674,324.5904562999999,[0.24666666666666667],[0.25166666666666665],[1],[0],[0],[1.552724100000205],['target'],104309,001,2024-10-10_13h58.29.525,visual search,2024.2.1post4,60.023144924646346,2024-10-10 13h59.11.346411 +0530,
143,0,143,[-0.5066666666666667],[0.3233333333333333],[1],[0],[0],[2.128940000000057],['target'],143,0,143,0,324.6460459,,10,324.6260680999999,324.6460459,324.6460459,0.03548180000007051,326.75544109999987,[-0.5066666666666667],[0.3233333333333333],[1],[0],[0],[2.128940000000057],['target'],104309,001,2024-10-10_13h58.29.525,visual search,2024.2.1post4,60.023144924646346,2024-10-10 13h59.11.346411 +0530,
144,0,144,[0.021666666666666667],[0.14833333333333334],[1],[0],[0],[2.2495466000000306],['target'],144,0,144,0,326.8036660999999,,10,326.7890305000001,326.8036660999999,326.8036660999999,0.033422999999856984,329.0390132,[0.021666666666666667],[0.14833333333333334],[1],[0],[0],[2.2495466000000306],['target'],104309,001,2024-10-10_13h58.29.525,visual search,2024.2.1post4,60.023144924646346,2024-10-10 13h59.11.346411 +0530,
145,0,145,[-0.24],[-0.021666666666666667],[1],[0],[0],[1.7720068000000992],['target'],145,0,145,0,329.0815041999999,,10,329.0669198999999,329.0815041999999,329.0815041999999,0.02768300000002455,330.8393389999999,[-0.24],[-0.021666666666666667],[1],[0],[0],[1.7720068000000992],['target'],104309,001,2024-10-10_13h58.29.525,visual search,2024.2.1post4,60.023144924646346,2024-10-10 13h59.11.346411 +0530,
146,0,146,[0.11166666666666666],[-0.24166666666666667],[1],[0],[0],[1.6326334999998835],['target'],146,0,146,0,330.86799010000004,,5,330.85535230000005,330.86799010000004,330.86799010000004,0.015821999999843683,332.4883540000001,[0.11166666666666666],[-0.24166666666666667],[1],[0],[0],[1.6326334999998835],['target'],104309,001,2024-10-10_13h58.29.525,visual search,2024.2.1post4,60.023144924646346,2024-10-10 13h59.11.346411 +0530,
147,0,147,[0.22166666666666668],[-0.1],[1],[0],[0],[1.869894400000021],['target'],147,0,147,0,332.51569470000004,,5,332.50144410000007,332.51569470000004,332.51569470000004,0.012968999999884545,334.3717684999999,[0.22166666666666668],[-0.1],[1],[0],[0],[1.869894400000021],['target'],104309,001,2024-10-10_13h58.29.525,visual search,2024.2.1post4,60.023144924646346,2024-10-10 13h59.11.346411 +0530,
148,0,148,[0.06333333333333334],[-0.3],[1],[0],[0],[1.8503720999999587],['target'],148,0,148,0,334.3991223999999,,5,334.38785400000006,334.3991223999999,334.3991223999999,0.015932999999904496,336.23868489999995,[0.06333333333333334],[-0.3],[1],[0],[0],[1.8503720999999587],['target'],104309,001,2024-10-10_13h58.29.525,visual search,2024.2.1post4,60.023144924646346,2024-10-10 13h59.11.346411 +0530,
149,0,149,[-0.36],[0.25333333333333335],[1],[0],[0],[2.2717870000001312],['target'],149,0,149,0,336.28096060000007,,10,336.2673407,336.28096060000007,336.28096060000007,0.028473999999960142,338.5395940000001,[-0.36],[0.25333333333333335],[1],[0],[0],[2.2717870000001312],['target'],104309,001,2024-10-10_13h58.29.525,visual search,2024.2.1post4,60.023144924646346,2024-10-10 13h59.11.346411 +0530,
150,0,150,[-0.455],[-0.4683333333333333],[1],[0],[0],[2.9851229999999305],['target'],150,0,150,0,338.56593759999987,,5,338.55358909999995,338.56593759999987,338.56593759999987,0.013793600000099104,341.5391545,[-0.455],[-0.4683333333333333],[1],[0],[0],[2.9851229999999305],['target'],104309,001,2024-10-10_13h58.29.525,visual search,2024.2.1post4,60.023144924646346,2024-10-10 13h59.11.346411 +0530,
151,0,151,[-0.3416666666666667],[0.11166666666666666],[1],[0],[0],[1.9068044000000555],['target'],151,0,151,0,341.5817187,,10,341.56718709999996,341.5817187,341.5817187,0.02786710000009407,343.4744244000001,[-0.3416666666666667],[0.11166666666666666],[1],[0],[0],[1.9068044000000555],['target'],104309,001,2024-10-10_13h58.29.525,visual search,2024.2.1post4,60.023144924646346,2024-10-10 13h59.11.346411 +0530,
152,0,152,[-0.37333333333333335],[-0.2633333333333333],[1],[0],[0],[1.910672599999998],['target'],152,0,152,0,343.5081883999999,,5,343.4938228000001,343.5081883999999,343.5081883999999,0.0191695000000891,345.4050198,[-0.37333333333333335],[-0.2633333333333333],[1],[0],[0],[1.910672599999998],['target'],104309,001,2024-10-10_13h58.29.525,visual search,2024.2.1post4,60.023144924646346,2024-10-10 13h59.11.346411 +0530,
153,0,153,[0.22166666666666668],[0.058333333333333334],[1],[0],[0],[2.084994800000004],['target'],153,0,153,0,345.45487819999994,,10,345.4372168,345.45487819999994,345.45487819999994,0.03209189999984119,347.5227932999999,[0.22166666666666668],[0.058333333333333334],[1],[0],[0],[2.084994800000004],['target'],104309,001,2024-10-10_13h58.29.525,visual search,2024.2.1post4,60.023144924646346,2024-10-10 13h59.11.346411 +0530,
154,0,154,[0.17],[-0.43833333333333335],[1],[0],[0],[1.6782215999999153],['target'],154,0,154,0,347.55922340000006,,5,347.54408119999994,347.55922340000006,347.55922340000006,0.02105970000002344,349.22276209999995,[0.17],[-0.43833333333333335],[1],[0],[0],[1.6782215999999153],['target'],104309,001,2024-10-10_13h58.29.525,visual search,2024.2.1post4,60.023144924646346,2024-10-10 13h59.11.346411 +0530,
155,0,155,[0.215],[0.006666666666666667],[1],[0],[0],[1.3577826000000641],['target'],155,0,155,0,349.26270640000007,,10,349.24810389999993,349.26270640000007,349.26270640000007,0.025210400000105437,350.6063861,[0.215],[0.006666666666666667],[1],[0],[0],[1.3577826000000641],['target'],104309,001,2024-10-10_13h58.29.525,visual search,2024.2.1post4,60.023144924646346,2024-10-10 13h59.11.346411 +0530,
156,0,156,[0.3566666666666667],[-0.36833333333333335],[1],[0],[0],[2.1078026000000136],['target'],156,0,156,0,350.67494710000005,,10,350.6486970000001,350.67494710000005,350.67494710000005,0.04207330000008369,352.75698609999995,[0.3566666666666667],[-0.36833333333333335],[1],[0],[0],[2.1078026000000136],['target'],104309,001,2024-10-10_13h58.29.525,visual search,2024.2.1post4,60.023144924646346,2024-10-10 13h59.11.346411 +0530,
157,0,157,[-0.06833333333333333],[-0.12333333333333334],[1],[0],[0],[1.5792639999999665],['target'],157,0,157,0,352.79102250000005,,5,352.77664759999993,352.79102250000005,352.79102250000005,0.019466099999817743,354.3564211999999,[-0.06833333333333333],[-0.12333333333333334],[1],[0],[0],[1.5792639999999665],['target'],104309,001,2024-10-10_13h58.29.525,visual search,2024.2.1post4,60.023144924646346,2024-10-10 13h59.11.346411 +0530,
158,0,158,[-0.23666666666666666],[-0.0016666666666666668],[1],[0],[0],[1.53934890000005],['target'],158,0,158,0,354.3971257999999,,10,354.38252310000007,354.3971257999999,354.3971257999999,0.025966899999957604,355.9222728,[-0.23666666666666666],[-0.0016666666666666668],[1],[0],[0],[1.53934890000005],['target'],104309,001,2024-10-10_13h58.29.525,visual search,2024.2.1post4,60.023144924646346,2024-10-10 13h59.11.346411 +0530,
159,0,159,[0.27],[-0.365],[1],[0],[0],[1.9062391999998454],['target'],159,0,159,0,355.94995760000006,,5,355.93497520000005,355.94995760000006,355.94995760000006,0.012542800000119314,357.8417738999999,[0.27],[-0.365],[1],[0],[0],[1.9062391999998454],['target'],104309,001,2024-10-10_13h58.29.525,visual search,2024.2.1post4,60.023144924646346,2024-10-10 13h59.11.346411 +0530,
160,0,160,[-0.045],[-0.105],[1],[0],[0],[1.4284436999998888],['target'],160,0,160,0,357.8949342000001,,10,357.87773930000003,357.8949342000001,357.8949342000001,0.035713400000076945,359.30664709999996,[-0.045],[-0.105],[1],[0],[0],[1.4284436999998888],['target'],104309,001,2024-10-10_13h58.29.525,visual search,2024.2.1post4,60.023144924646346,2024-10-10 13h59.11.346411 +0530,
161,0,161,[0.26166666666666666],[0.49666666666666665],[1],[0],[0],[2.5517357999999604],['target'],161,0,161,0,359.33349139999996,,5,359.32081259999995,359.33349139999996,359.33349139999996,0.013995400000112568,361.8729900999999,[0.26166666666666666],[0.49666666666666665],[1],[0],[0],[2.5517357999999604],['target'],104309,001,2024-10-10_13h58.29.525,visual search,2024.2.1post4,60.023144924646346,2024-10-10 13h59.11.346411 +0530,
162,0,162,[-0.058333333333333334],[0.235],[1],[0],[0],[1.9178137999999763],['target'],162,0,162,0,361.9002877999999,,5,361.8864601,361.9002877999999,361.9002877999999,0.013346700000056444,363.80472239999995,[-0.058333333333333334],[0.235],[1],[0],[0],[1.9178137999999763],['target'],104309,001,2024-10-10_13h58.29.525,visual search,2024.2.1post4,60.023144924646346,2024-10-10 13h59.11.346411 +0530,
163,0,163,[0.025],[0.20666666666666667],[1],[0],[0],[2.134472500000129],['target'],163,0,163,0,363.83370790000004,,5,363.8208984999999,363.83370790000004,363.83370790000004,0.016000999999960186,365.9558757,[0.025],[0.20666666666666667],[1],[0],[0],[2.134472500000129],['target'],104309,001,2024-10-10_13h58.29.525,visual search,2024.2.1post4,60.023144924646346,2024-10-10 13h59.11.346411 +0530,
164,0,164,[-0.37333333333333335],[-0.35333333333333333],[1],[0],[0],[2.069880600000033],['target'],164,0,164,0,365.9837726999999,,5,365.9692814,365.9837726999999,365.9837726999999,0.013263900000083595,368.0395854000001,[-0.37333333333333335],[-0.35333333333333333],[1],[0],[0],[2.069880600000033],['target'],104309,001,2024-10-10_13h58.29.525,visual search,2024.2.1post4,60.023144924646346,2024-10-10 13h59.11.346411 +0530,
165,0,165,[-0.19166666666666668],[0.43333333333333335],[1],[0],[0],[1.541208099999949],['target'],165,0,165,0,368.0839598,,10,368.0649105,368.0839598,368.0839598,0.025203899999951318,369.6066120999999,[-0.19166666666666668],[0.43333333333333335],[1],[0],[0],[1.541208099999949],['target'],104309,001,2024-10-10_13h58.29.525,visual search,2024.2.1post4,60.023144924646346,2024-10-10 13h59.11.346411 +0530,
166,0,166,[0.365],[0.23333333333333334],[1],[0],[0],[2.284828800000014],['target'],166,0,166,0,369.63395309999987,,5,369.6224357000001,369.63395309999987,369.63395309999987,0.015568300000040836,371.90771330000007,[0.365],[0.23333333333333334],[1],[0],[0],[2.284828800000014],['target'],104309,001,2024-10-10_13h58.29.525,visual search,2024.2.1post4,60.023144924646346,2024-10-10 13h59.11.346411 +0530,
167,0,167,[-0.06166666666666667],[-0.21],[1],[0],[0],[2.0218433000000005],['target'],167,0,167,0,371.9512417000001,,10,371.9345277,371.9512417000001,371.9512417000001,0.026650700000118377,373.95677980000005,[-0.06166666666666667],[-0.21],[1],[0],[0],[2.0218433000000005],['target'],104309,001,2024-10-10_13h58.29.525,visual search,2024.2.1post4,60.023144924646346,2024-10-10 13h59.11.346411 +0530,
168,0,168,[0.4716666666666667],[-0.13666666666666666],[1],[0],[0],[2.7378823999999895],['target'],168,0,168,0,374.00027449999993,,10,373.9856015999999,374.00027449999993,374.00027449999993,0.028625700000020515,376.7239190999999,[0.4716666666666667],[-0.13666666666666666],[1],[0],[0],[2.7378823999999895],['target'],104309,001,2024-10-10_13h58.29.525,visual search,2024.2.1post4,60.023144924646346,2024-10-10 13h59.11.346411 +0530,
169,0,169,[-0.028333333333333332],[-0.1],[1],[0],[0],[1.6191779999999198],['target'],169,0,169,0,376.7691537999999,,10,376.7543306,376.7691537999999,376.7691537999999,0.03020209999999679,378.3739194,[-0.028333333333333332],[-0.1],[1],[0],[0],[1.6191779999999198],['target'],104309,001,2024-10-10_13h58.29.525,visual search,2024.2.1post4,60.023144924646346,2024-10-10 13h59.11.346411 +0530,
170,0,170,[-0.505],[-0.39166666666666666],[1],[0],[0],[2.6522092999998677],['target'],170,0,170,0,378.4010232999999,,5,378.3895679,378.4010232999999,378.4010232999999,0.015431000000035056,381.0422653999999,[-0.505],[-0.39166666666666666],[1],[0],[0],[2.6522092999998677],['target'],104309,001,2024-10-10_13h58.29.525,visual search,2024.2.1post4,60.023144924646346,2024-10-10 13h59.11.346411 +0530,
171,0,171,[-0.325],[-0.056666666666666664],[1],[0],[0],[1.7649854999999661],['target'],171,0,171,0,381.0715567,,5,381.05898320000006,381.0715567,381.0715567,0.01656019999995806,382.8243834,[-0.325],[-0.056666666666666664],[1],[0],[0],[1.7649854999999661],['target'],104309,001,2024-10-10_13h58.29.525,visual search,2024.2.1post4,60.023144924646346,2024-10-10 13h59.11.346411 +0530,
172,0,172,[0.16333333333333333],[-0.37333333333333335],[1],[0],[0],[2.5003402999998343],['target'],172,0,172,0,382.8759729000001,,10,382.85603119999996,382.8759729000001,382.8759729000001,0.03147239999998419,385.3568534000001,[0.16333333333333333],[-0.37333333333333335],[1],[0],[0],[2.5003402999998343],['target'],104309,001,2024-10-10_13h58.29.525,visual search,2024.2.1post4,60.023144924646346,2024-10-10 13h59.11.346411 +0530,
173,0,173,[0.25333333333333335],[0.06],[1],[0],[0],[1.7309490999998616],['target'],173,0,173,0,385.4128367999999,,10,385.39540639999996,385.4128367999999,385.4128367999999,0.038524199999983466,387.1269654,[0.25333333333333335],[0.06],[1],[0],[0],[1.7309490999998616],['target'],104309,001,2024-10-10_13h58.29.525,visual search,2024.2.1post4,60.023144924646346,2024-10-10 13h59.11.346411 +0530,
174,0,174,[0.2866666666666667],[0.385],[1],[0],[0],[2.095363600000155],['target'],174,0,174,0,387.20841960000007,,10,387.1810037,387.20841960000007,387.20841960000007,0.05380539999987377,389.27695500000004,[0.2866666666666667],[0.385],[1],[0],[0],[2.095363600000155],['target'],104309,001,2024-10-10_13h58.29.525,visual search,2024.2.1post4,60.023144924646346,2024-10-10 13h59.11.346411 +0530,
175,0,175,[0.29833333333333334],[0.17666666666666667],[1],[0],[0],[1.6500671000001148],['target'],175,0,175,0,389.3512484999999,,10,389.3261986,389.3512484999999,389.3512484999999,0.04896780000012768,390.97672420000004,[0.29833333333333334],[0.17666666666666667],[1],[0],[0],[1.6500671000001148],['target'],104309,001,2024-10-10_13h58.29.525,visual search,2024.2.1post4,60.023144924646346,2024-10-10 13h59.11.346411 +0530,
176,0,176,[-0.41833333333333333],[-0.395],[1],[0],[0],[3.5120428999998694],['target'],176,0,176,0,391.01074760000006,,5,390.9967961,391.01074760000006,391.01074760000006,0.01984060000017962,394.5093445,[-0.41833333333333333],[-0.395],[1],[0],[0],[3.5120428999998694],['target'],104309,001,2024-10-10_13h58.29.525,visual search,2024.2.1post4,60.023144924646346,2024-10-10 13h59.11.346411 +0530,
177,0,177,[0.06166666666666667],[0.3516666666666667],[1],[0],[0],[1.9142715999998927],['target'],177,0,177,0,394.56343489999995,,10,394.54537200000004,394.56343489999995,394.56343489999995,0.035843300000124145,396.46017499999994,[0.06166666666666667],[0.3516666666666667],[1],[0],[0],[1.9142715999998927],['target'],104309,001,2024-10-10_13h58.29.525,visual search,2024.2.1post4,60.023144924646346,2024-10-10 13h59.11.346411 +0530,
178,0,178,[0.29],[0.39166666666666666],[1],[0],[0],[1.5035696999998436],['target'],178,0,178,0,396.50698480000005,,5,396.48810679999997,396.50698480000005,396.50698480000005,0.027622900000096706,397.9921380999999,[0.29],[0.39166666666666666],[1],[0],[0],[1.5035696999998436],['target'],104309,001,2024-10-10_13h58.29.525,visual search,2024.2.1post4,60.023144924646346,2024-10-10 13h59.11.346411 +0530,
179,0,179,[0.09666666666666666],[0.48333333333333334],[1],[0],[0],[3.914170000000013],['target'],179,0,179,0,398.05036530000007,,10,398.0264717,398.05036530000007,398.05036530000007,0.034140200000138066,401.9410674999999,[0.09666666666666666],[0.48333333333333334],[1],[0],[0],[3.914170000000013],['target'],104309,001,2024-10-10_13h58.29.525,visual search,2024.2.1post4,60.023144924646346,2024-10-10 13h59.11.346411 +0530,
180,0,180,[-0.46],[0.12666666666666668],[1],[0],[0],[1.8038128999999117],['target'],180,0,180,0,401.9686041,,5,401.954571,401.9686041,401.9686041,0.013347300000077666,403.75884730000007,[-0.46],[0.12666666666666668],[1],[0],[0],[1.8038128999999117],['target'],104309,001,2024-10-10_13h58.29.525,visual search,2024.2.1post4,60.023144924646346,2024-10-10 13h59.11.346411 +0530,
181,0,181,[-0.27166666666666667],[0.025],[1],[0],[0],[1.3855490999999347],['target'],181,0,181,0,403.7853436999999,,5,403.7722994999999,403.7853436999999,403.7853436999999,0.013289499999928012,405.15831030000004,[-0.27166666666666667],[0.025],[1],[0],[0],[1.3855490999999347],['target'],104309,001,2024-10-10_13h58.29.525,visual search,2024.2.1post4,60.023144924646346,2024-10-10 13h59.11.346411 +0530,
182,0,182,[0.45666666666666667],[0.475],[1],[0],[0],[3.4549458999999842],['target'],182,0,182,0,405.2006225,,10,405.18605279999997,405.2006225,405.2006225,0.027556000000004133,408.6414477999999,[0.45666666666666667],[0.475],[1],[0],[0],[3.4549458999999842],['target'],104309,001,2024-10-10_13h58.29.525,visual search,2024.2.1post4,60.023144924646346,2024-10-10 13h59.11.346411 +0530,
183,0,183,[0.0016666666666666668],[0.10166666666666667],[1],[0],[0],[1.9387226999999712],['target'],183,0,183,0,408.6838381,,10,408.6691567999999,408.6838381,408.6838381,0.027485400000159643,410.6082896999999,[0.0016666666666666668],[0.10166666666666667],[1],[0],[0],[1.9387226999999712],['target'],104309,001,2024-10-10_13h58.29.525,visual search,2024.2.1post4,60.023144924646346,2024-10-10 13h59.11.346411 +0530,
184,0,184,[-0.28833333333333333],[-0.355],[1],[0],[0],[2.33693530000005],['target'],184,0,184,0,410.6356403,,5,410.62123240000005,410.6356403,410.6356403,0.012778799999978219,412.9585608,[-0.28833333333333333],[-0.355],[1],[0],[0],[2.33693530000005],['target'],104309,001,2024-10-10_13h58.29.525,visual search,2024.2.1post4,60.023144924646346,2024-10-10 13h59.11.346411 +0530,
185,0,185,[0.16333333333333333],[0.4483333333333333],[1],[0],[0],[1.7084353000000192],['target'],185,0,185,0,413.0191073000001,,10,413.00038659999996,413.0191073000001,413.0191073000001,0.04171459999997751,414.70920750000005,[0.16333333333333333],[0.4483333333333333],[1],[0],[0],[1.7084353000000192],['target'],104309,001,2024-10-10_13h58.29.525,visual search,2024.2.1post4,60.023144924646346,2024-10-10 13h59.11.346411 +0530,
186,0,186,[-0.4033333333333333],[-0.325],[1],[0],[0],[1.988466100000096],['target'],186,0,186,0,414.75117090000003,,10,414.7366509000001,414.75117090000003,414.75117090000003,0.027238200000056167,416.72549619999995,[-0.4033333333333333],[-0.325],[1],[0],[0],[1.988466100000096],['target'],104309,001,2024-10-10_13h58.29.525,visual search,2024.2.1post4,60.023144924646346,2024-10-10 13h59.11.346411 +0530,
187,0,187,[0.22666666666666666],[-0.2916666666666667],[1],[0],[0],[1.6561730999999327],['target'],187,0,187,0,416.76659859999995,,10,416.75206690000005,416.76659859999995,416.76659859999995,0.02640550000000985,418.4086654,[0.22666666666666666],[-0.2916666666666667],[1],[0],[0],[1.6561730999999327],['target'],104309,001,2024-10-10_13h58.29.525,visual search,2024.2.1post4,60.023144924646346,2024-10-10 13h59.11.346411 +0530,
188,0,188,[0.14833333333333334],[-0.041666666666666664],[1],[0],[0],[2.501625200000035],['target'],188,0,188,0,418.43595589999995,,5,418.42480449999994,418.43595589999995,418.43595589999995,0.015883499999972628,420.9269260000001,[0.14833333333333334],[-0.041666666666666664],[1],[0],[0],[2.501625200000035],['target'],104309,001,2024-10-10_13h58.29.525,visual search,2024.2.1post4,60.023144924646346,2024-10-10 13h59.11.346411 +0530,
189,0,189,[0.025],[-0.3383333333333333],[1],[0],[0],[2.6820045000001755],['target'],189,0,189,0,420.9754791999999,,10,420.9595148000001,420.9754791999999,420.9754791999999,0.0324015999999574,423.64196029999994,[0.025],[-0.3383333333333333],[1],[0],[0],[2.6820045000001755],['target'],104309,001,2024-10-10_13h58.29.525,visual search,2024.2.1post4,60.023144924646346,2024-10-10 13h59.11.346411 +0530,
190,0,190,[0.03833333333333333],[-0.09833333333333333],[1],[0],[0],[1.087157699999807],['target'],190,0,190,0,423.6695302999999,,5,423.6550242999999,423.6695302999999,423.6695302999999,0.012905200000204786,424.7425962,[0.03833333333333333],[-0.09833333333333333],[1],[0],[0],[1.087157699999807],['target'],104309,001,2024-10-10_13h58.29.525,visual search,2024.2.1post4,60.023144924646346,2024-10-10 13h59.11.346411 +0530,
191,0,191,[0.33166666666666667],[0.058333333333333334],[1],[0],[0],[1.5405448000001343],['target'],191,0,191,0,424.78330529999994,,10,424.7682577999999,424.78330529999994,424.78330529999994,0.025532200000043304,426.309219,[0.33166666666666667],[0.058333333333333334],[1],[0],[0],[1.5405448000001343],['target'],104309,001,2024-10-10_13h58.29.525,visual search,2024.2.1post4,60.023144924646346,2024-10-10 13h59.11.346411 +0530,
192,0,192,[-0.4483333333333333],[-0.32666666666666666],[1],[0],[0],[2.2880514000000858],['target'],192,0,192,0,426.3608085999999,,10,426.3373254999999,426.3608085999999,426.3608085999999,0.027903899999955684,428.625806,[-0.4483333333333333],[-0.32666666666666666],[1],[0],[0],[2.2880514000000858],['target'],104309,001,2024-10-10_13h58.29.525,visual search,2024.2.1post4,60.023144924646346,2024-10-10 13h59.11.346411 +0530,
193,0,193,[-0.23666666666666666],[0.44666666666666666],[1],[0],[0],[3.121970999999803],['target'],193,0,193,0,428.66819069999997,,10,428.6535008000001,428.66819069999997,428.66819069999997,0.027469299999893337,431.7759332999999,[-0.23666666666666666],[0.44666666666666666],[1],[0],[0],[3.121970999999803],['target'],104309,001,2024-10-10_13h58.29.525,visual search,2024.2.1post4,60.023144924646346,2024-10-10 13h59.11.346411 +0530,
194,0,194,[-0.235],[0.455],[1],[0],[0],[1.1383565999999519],['target'],194,0,194,0,431.81815430000006,,10,431.8037045000001,431.81815430000006,431.81815430000006,0.027548699999897508,432.94250349999993,[-0.235],[0.455],[1],[0],[0],[1.1383565999999519],['target'],104309,001,2024-10-10_13h58.29.525,visual search,2024.2.1post4,60.023144924646346,2024-10-10 13h59.11.346411 +0530,
195,0,195,[0.29],[0.16666666666666666],[1],[0],[0],[2.057841000000053],['target'],195,0,195,0,432.9856708,,10,432.96806330000004,432.9856708,432.9856708,0.025395499999831372,435.02634579999994,[0.29],[0.16666666666666666],[1],[0],[0],[2.057841000000053],['target'],104309,001,2024-10-10_13h58.29.525,visual search,2024.2.1post4,60.023144924646346,2024-10-10 13h59.11.346411 +0530,
196,0,196,[-0.38666666666666666],[0.29833333333333334],[1],[0],[0],[2.7404661999999007],['target'],196,0,196,0,435.0687404999999,,10,435.05425719999994,435.0687404999999,435.0687404999999,0.027705199999900287,437.79519890000006,[-0.38666666666666666],[0.29833333333333334],[1],[0],[0],[2.7404661999999007],['target'],104309,001,2024-10-10_13h58.29.525,visual search,2024.2.1post4,60.023144924646346,2024-10-10 13h59.11.346411 +0530,
197,0,197,[-0.2683333333333333],[0.09],[1],[0],[0],[1.4799365999999736],['target'],197,0,197,0,437.8501188,,10,437.83050019999996,437.8501188,437.8501188,0.03508560000000216,439.3108870000001,[-0.2683333333333333],[0.09],[1],[0],[0],[1.4799365999999736],['target'],104309,001,2024-10-10_13h58.29.525,visual search,2024.2.1post4,60.023144924646346,2024-10-10 13h59.11.346411 +0530,
198,0,198,[0.09333333333333334],[0.44333333333333336],[1],[0],[0],[2.405194100000017],['target'],198,0,198,0,439.35209050000003,,10,439.3374976,439.35209050000003,439.35209050000003,0.026414500000100816,441.74313159999997,[0.09333333333333334],[0.44333333333333336],[1],[0],[0],[2.405194100000017],['target'],104309,001,2024-10-10_13h58.29.525,visual search,2024.2.1post4,60.023144924646346,2024-10-10 13h59.11.346411 +0530,
199,0,199,[-0.25666666666666665],[-0.2783333333333333],[1],[0],[0],[1.8846739000000525],['target'],199,0,199,0,441.7702961,,5,441.75879110000005,441.7702961,441.7702961,0.015427199999976438,443.6439329,[-0.25666666666666665],[-0.2783333333333333],[1],[0],[0],[1.8846739000000525],['target'],104309,001,2024-10-10_13h58.29.525,visual search,2024.2.1post4,60.023144924646346,2024-10-10 13h59.11.346411 +0530,
