pos,corr_resp,thisN,thisTrialN,thisRepN,key_resp.keys,key_resp.corr,key_resp.rt,key_resp.duration,trials.thisRepN,trials.thisTrialN,trials.thisN,trials.thisIndex,trials_2.thisRepN,trials_2.thisTrialN,trials_2.thisN,trials_2.thisIndex,thisRow.t,notes,trial.started,fixation.started,line1.started,line2.started,line3.started,line4.started,fixation.stopped,probe.started,key_resp.started,trial.stopped,trials.key_resp.keys,trials.key_resp.corr,trials.key_resp.rt,trials.key_resp.duration,trials_2.key_resp.keys,trials_2.key_resp.corr,trials_2.key_resp.rt,trials_2.key_resp.duration,participant,session,date,expName,psychopyVersion,frameRate,expStart,
-50,x,0,0,0,x,1,0.5918027000006987,None,0,0,0,0,,,,,0.04087719999733963,,0.01930739999806974,0.04087719999733963,1.011706299999787,1.011706299999787,1.011706299999787,1.011706299999787,1.0409328999994614,2.007555099997262,2.007555099997262,2.6166768000002776,x,1,0.5918027000006987,None,,,,,072424,001,2024-10-16_21h54.09.618,motorsquence,2024.2.1post4,60.01979452873557,2024-10-16 21h54.16.872018 +0530,
150,v,1,1,0,v,1,0.30757879999873694,None,0,1,1,1,,,,,2.631813799998781,,2.6174279999977443,2.631813799998781,3.6164847999971244,3.6164847999971244,3.6164847999971244,3.6164847999971244,3.6330920999971568,4.616546799999924,4.616546799999924,4.9346638999995776,v,1,0.30757879999873694,None,,,,,072424,001,2024-10-16_21h54.09.618,motorsquence,2024.2.1post4,60.01979452873557,2024-10-16 21h54.16.872018 +0530,
50,c,2,2,0,c,1,0.5297411999999895,None,0,2,2,2,,,,,4.949715099999594,,4.935320299999148,4.949715099999594,5.949833200000285,5.949833200000285,5.949833200000285,5.949833200000285,5.949833200000285,6.949873099998513,6.949873099998513,7.484943600000406,c,1,0.5297411999999895,None,,,,,072424,001,2024-10-16_21h54.09.618,motorsquence,2024.2.1post4,60.01979452873557,2024-10-16 21h54.16.872018 +0530,
-150,z,3,3,0,z,1,0.32783259999996517,None,0,3,3,3,,,,,7.4998010999988765,,7.4855968999982,7.4998010999988765,8.49988889999804,8.49988889999804,8.49988889999804,8.49988889999804,8.49988889999804,9.50000799999907,9.50000799999907,9.835442499999772,z,1,0.32783259999996517,None,,,,,072424,001,2024-10-16_21h54.09.618,motorsquence,2024.2.1post4,60.01979452873557,2024-10-16 21h54.16.872018 +0530,
-50,x,4,0,1,x,1,0.575602599998092,None,1,0,4,0,,,,,9.850032999998803,,9.836156099998334,9.850032999998803,10.850129299997207,10.850129299997207,10.850129299997207,10.850129299997207,10.850129299997207,11.850101399999403,11.850101399999403,12.435279899997113,x,1,0.575602599998092,None,,,,,072424,001,2024-10-16_21h54.09.618,motorsquence,2024.2.1post4,60.01979452873557,2024-10-16 21h54.16.872018 +0530,
150,v,5,1,1,v,1,0.47324639999715146,None,1,1,5,1,,,,,12.450037099999463,,12.43594739999753,12.450037099999463,13.450161099997786,13.450161099997786,13.450161099997786,13.450161099997786,13.450161099997786,14.44139869999708,14.44139869999708,14.926653599999554,v,1,0.47324639999715146,None,,,,,072424,001,2024-10-16_21h54.09.618,motorsquence,2024.2.1post4,60.01979452873557,2024-10-16 21h54.16.872018 +0530,
50,c,6,2,1,c,1,0.3423046999996586,None,1,2,6,2,,,,,14.941417599999113,,14.927298700000392,14.941417599999113,15.94147410000005,15.94147410000005,15.94147410000005,15.94147410000005,15.94147410000005,16.941563599997608,16.941563599997608,17.293590699999186,c,1,0.3423046999996586,None,,,,,072424,001,2024-10-16_21h54.09.618,motorsquence,2024.2.1post4,60.01979452873557,2024-10-16 21h54.16.872018 +0530,
-150,z,7,3,1,z,1,0.2887300000002142,None,1,3,7,3,,,,,17.30836199999976,,17.29430019999927,17.30836199999976,18.308243499999662,18.308243499999662,18.308243499999662,18.308243499999662,18.308243499999662,19.308474399997067,19.308474399997067,19.60984009999811,z,1,0.2887300000002142,None,,,,,072424,001,2024-10-16_21h54.09.618,motorsquence,2024.2.1post4,60.01979452873557,2024-10-16 21h54.16.872018 +0530,
-50,x,8,0,2,x,1,0.3076902000029804,None,2,0,8,0,,,,,19.62490969999999,,19.610405899999023,19.62490969999999,20.625206499997148,20.625206499997148,20.625206499997148,20.625206499997148,20.625206499997148,21.625279500000033,21.625279500000033,21.94374659999812,x,1,0.3076902000029804,None,,,,,072424,001,2024-10-16_21h54.09.618,motorsquence,2024.2.1post4,60.01979452873557,2024-10-16 21h54.16.872018 +0530,
150,v,9,1,2,v,1,0.30305719999887515,None,2,1,9,1,,,,,21.95846299999903,,21.944483999999647,21.95846299999903,22.958590899997944,22.958590899997944,22.958590899997944,22.958590899997944,22.958590899997944,23.958554499997263,23.958554499997263,24.276766099999804,v,1,0.30305719999887515,None,,,,,072424,001,2024-10-16_21h54.09.618,motorsquence,2024.2.1post4,60.01979452873557,2024-10-16 21h54.16.872018 +0530,
50,c,10,2,2,c,1,0.3436508999984653,None,2,2,10,2,,,,,24.29184659999737,,24.277534199998627,24.29184659999737,25.291851799996948,25.291851799996948,25.291851799996948,25.291851799996948,25.291851799996948,26.291993699996965,26.291993699996965,26.64404049999939,c,1,0.3436508999984653,None,,,,,072424,001,2024-10-16_21h54.09.618,motorsquence,2024.2.1post4,60.01979452873557,2024-10-16 21h54.16.872018 +0530,
-150,z,11,3,2,z,1,0.5958390000014333,None,2,3,11,3,,,,,26.658811799999967,,26.64485429999695,26.658811799999967,27.658703299999615,27.658703299999615,27.658703299999615,27.658703299999615,27.658703299999615,28.658724599998095,28.658724599998095,29.260716099997808,z,1,0.5958390000014333,None,,,,,072424,001,2024-10-16_21h54.09.618,motorsquence,2024.2.1post4,60.01979452873557,2024-10-16 21h54.16.872018 +0530,
-50,x,12,0,3,x,1,0.26988039999923785,None,3,0,12,0,,,,,29.27538629999981,,29.261368100000254,29.27538629999981,30.275448399999732,30.275448399999732,30.275448399999732,30.275448399999732,30.275448399999732,31.275493499997538,31.275493499997538,31.560464899997896,x,1,0.26988039999923785,None,,,,,072424,001,2024-10-16_21h54.09.618,motorsquence,2024.2.1post4,60.01979452873557,2024-10-16 21h54.16.872018 +0530,
150,v,13,1,3,v,1,0.3773899999978312,None,3,1,13,1,,,,,31.57554049999817,,31.561105599997973,31.57554049999817,32.575548299999355,32.575548299999355,32.575548299999355,32.575548299999355,32.575548299999355,33.57552199999918,33.57552199999918,33.961251699998684,v,1,0.3773899999978312,None,,,,,072424,001,2024-10-16_21h54.09.618,motorsquence,2024.2.1post4,60.01979452873557,2024-10-16 21h54.16.872018 +0530,
50,c,14,2,3,c,1,0.6906316000022343,None,3,2,14,2,,,,,33.975722099999984,,33.96190959999876,33.975722099999984,34.97578169999906,34.97578169999906,34.97578169999906,34.97578169999906,34.97578169999906,35.975705499997275,35.975705499997275,36.677374099999724,c,1,0.6906316000022343,None,,,,,072424,001,2024-10-16_21h54.09.618,motorsquence,2024.2.1post4,60.01979452873557,2024-10-16 21h54.16.872018 +0530,
-150,z,15,3,3,z,1,0.3929647000004479,None,3,3,15,3,,,,,36.692372099998465,,36.67802809999921,36.692372099998465,37.69249560000026,37.69249560000026,37.69249560000026,37.69249560000026,37.69249560000026,38.69242129999839,38.69242129999839,39.0941963999976,z,1,0.3929647000004479,None,,,,,072424,001,2024-10-16_21h54.09.618,motorsquence,2024.2.1post4,60.01979452873557,2024-10-16 21h54.16.872018 +0530,
-50,x,16,0,4,x,1,0.43004990000190446,None,4,0,16,0,,,,,39.1092166999988,,39.09483349999937,39.1092166999988,40.10916839999845,40.10916839999845,40.10916839999845,40.10916839999845,40.10916839999845,41.109328200000164,41.109328200000164,41.54449480000039,x,1,0.43004990000190446,None,,,,,072424,001,2024-10-16_21h54.09.618,motorsquence,2024.2.1post4,60.01979452873557,2024-10-16 21h54.16.872018 +0530,
150,v,17,1,4,v,1,0.3345811999970465,None,4,1,17,1,,,,,41.55919100000028,,41.54518040000039,41.55919100000028,42.55931199999759,42.55931199999759,42.55931199999759,42.55931199999759,42.55931199999759,43.559405299998616,43.559405299998616,43.91079829999944,v,1,0.3345811999970465,None,,,,,072424,001,2024-10-16_21h54.09.618,motorsquence,2024.2.1post4,60.01979452873557,2024-10-16 21h54.16.872018 +0530,
50,c,18,2,4,c,1,0.601755100000446,None,4,2,18,2,,,,,43.926249299998744,,43.911437699996895,43.926249299998744,44.92624909999722,44.92624909999722,44.92624909999722,44.92624909999722,44.92624909999722,45.92620559999705,45.92620559999705,46.54453250000006,c,1,0.601755100000446,None,,,,,072424,001,2024-10-16_21h54.09.618,motorsquence,2024.2.1post4,60.01979452873557,2024-10-16 21h54.16.872018 +0530,
-150,z,19,3,4,z,1,0.4567492999995011,None,4,3,19,3,,,,,46.559388699999545,,46.545163599999796,46.559388699999545,47.55970399999933,47.55970399999933,47.55970399999933,47.55970399999933,47.55970399999933,48.55973520000043,48.55973520000043,49.02805259999877,z,1,0.4567492999995011,None,,,,,072424,001,2024-10-16_21h54.09.618,motorsquence,2024.2.1post4,60.01979452873557,2024-10-16 21h54.16.872018 +0530,
-50,x,20,0,5,x,1,0.8726424000014958,None,5,0,20,0,,,,,49.042916099999275,,49.028702699997666,49.042916099999275,50.04296969999996,50.04296969999996,50.04296969999996,50.04296969999996,50.04296969999996,51.04300019999937,51.04300019999937,51.92871240000022,x,1,0.8726424000014958,None,,,,,072424,001,2024-10-16_21h54.09.618,motorsquence,2024.2.1post4,60.01979452873557,2024-10-16 21h54.16.872018 +0530,
150,v,21,1,5,v,1,0.311237699999765,None,5,1,21,1,,,,,51.9429999999993,,51.929637499997625,51.9429999999993,52.943220199998905,52.943220199998905,52.943220199998905,52.943220199998905,52.943220199998905,53.943275699999504,53.943275699999504,54.2619537999999,v,1,0.311237699999765,None,,,,,072424,001,2024-10-16_21h54.09.618,motorsquence,2024.2.1post4,60.01979452873557,2024-10-16 21h54.16.872018 +0530,
50,c,22,2,5,c,1,0.6632444999995641,None,5,2,22,2,,,,,54.27659700000004,,54.26266919999762,54.27659700000004,55.27657139999792,55.27657139999792,55.27657139999792,55.27657139999792,55.27657139999792,56.27654099999927,56.27654099999927,56.94450969999889,c,1,0.6632444999995641,None,,,,,072424,001,2024-10-16_21h54.09.618,motorsquence,2024.2.1post4,60.01979452873557,2024-10-16 21h54.16.872018 +0530,
-150,z,23,3,5,z,1,0.29910750000271946,None,5,3,23,3,,,,,56.95992420000039,,56.94497190000038,56.95992420000039,57.959918799999286,57.959918799999286,57.959918799999286,57.959918799999286,57.959918799999286,58.9598468999975,58.9598468999975,59.262013699997624,z,1,0.29910750000271946,None,,,,,072424,001,2024-10-16_21h54.09.618,motorsquence,2024.2.1post4,60.01979452873557,2024-10-16 21h54.16.872018 +0530,
-50,x,24,0,6,x,1,0.27857569999832776,None,6,0,24,0,,,,,59.27668499999709,,59.26265909999711,59.27668499999709,60.276633199999196,60.276633199999196,60.276633199999196,60.276633199999196,60.276633199999196,61.27695440000025,61.27695440000025,61.561874799997895,x,1,0.27857569999832776,None,,,,,072424,001,2024-10-16_21h54.09.618,motorsquence,2024.2.1post4,60.01979452873557,2024-10-16 21h54.16.872018 +0530,
150,v,25,1,6,v,1,0.46330630000011297,None,6,1,25,1,,,,,61.576805499997135,,61.56252820000009,61.576805499997135,62.57700139999724,62.57700139999724,62.57700139999724,62.57700139999724,62.57700139999724,63.576840300000185,63.576840300000185,64.0452766999988,v,1,0.46330630000011297,None,,,,,072424,001,2024-10-16_21h54.09.618,motorsquence,2024.2.1post4,60.01979452873557,2024-10-16 21h54.16.872018 +0530,
50,c,26,2,6,c,1,0.38617689999955473,None,6,2,26,2,,,,,64.06022859999939,,64.04593059999752,64.06022859999939,65.06044069999916,65.06044069999916,65.06044069999916,65.06044069999916,65.06044069999916,66.06026629999906,66.06026629999906,66.46168049999687,c,1,0.38617689999955473,None,,,,,072424,001,2024-10-16_21h54.09.618,motorsquence,2024.2.1post4,60.01979452873557,2024-10-16 21h54.16.872018 +0530,
-150,z,27,3,6,z,1,0.4333464000010281,None,6,3,27,3,,,,,66.47684519999893,,66.46212679999735,66.47684519999893,67.47726409999814,67.47726409999814,67.47726409999814,67.47726409999814,67.47726409999814,68.47731759999806,68.47731759999806,68.91278109999985,z,1,0.4333464000010281,None,,,,,072424,001,2024-10-16_21h54.09.618,motorsquence,2024.2.1post4,60.01979452873557,2024-10-16 21h54.16.872018 +0530,
-50,x,28,0,7,x,1,0.2672954000008758,None,7,0,28,0,,,,,68.92718349999996,,68.91344499999832,68.92718349999996,69.92735579999862,69.92735579999862,69.92735579999862,69.92735579999862,69.92735579999862,70.92725939999946,70.92725939999946,71.21191819999876,x,1,0.2672954000008758,None,,,,,072424,001,2024-10-16_21h54.09.618,motorsquence,2024.2.1post4,60.01979452873557,2024-10-16 21h54.16.872018 +0530,
150,v,29,1,7,v,1,0.4090226000007533,None,7,1,29,1,,,,,71.22725419999915,,71.21257709999918,71.22725419999915,72.2273002999973,72.2273002999973,72.2273002999973,72.2273002999973,72.2273002999973,73.22733669999798,73.22733669999798,73.6460616000004,v,1,0.4090226000007533,None,,,,,072424,001,2024-10-16_21h54.09.618,motorsquence,2024.2.1post4,60.01979452873557,2024-10-16 21h54.16.872018 +0530,
50,c,30,2,7,c,1,0.25235130000146455,None,7,2,30,2,,,,,73.66086659999928,,73.64679439999964,73.66086659999928,74.66075949999868,74.66075949999868,74.66075949999868,74.66075949999868,74.66075949999868,75.66068079999968,75.66068079999968,75.92995599999995,c,1,0.25235130000146455,None,,,,,072424,001,2024-10-16_21h54.09.618,motorsquence,2024.2.1post4,60.01979452873557,2024-10-16 21h54.16.872018 +0530,
-150,z,31,3,7,z,1,0.5436244999982591,None,7,3,31,3,,,,,75.94428679999692,,75.93093930000032,75.94428679999692,76.94427109999742,76.94427109999742,76.94427109999742,76.94427109999742,76.94427109999742,77.94407769999816,77.94407769999816,78.49657279999883,z,1,0.5436244999982591,None,,,,,072424,001,2024-10-16_21h54.09.618,motorsquence,2024.2.1post4,60.01979452873557,2024-10-16 21h54.16.872018 +0530,
-50,x,32,0,8,x,1,0.45295270000133314,None,8,0,32,0,,,,,78.51085149999926,,78.4972792999979,78.51085149999926,79.5109295000002,79.5109295000002,79.5109295000002,79.5109295000002,79.5109295000002,80.5109283999991,80.5109283999991,80.97974789999716,x,1,0.45295270000133314,None,,,,,072424,001,2024-10-16_21h54.09.618,motorsquence,2024.2.1post4,60.01979452873557,2024-10-16 21h54.16.872018 +0530,
150,v,33,1,8,v,1,0.5245360999979312,None,8,1,33,1,,,,,80.9944101000001,,80.98042979999809,80.9944101000001,81.99443569999858,81.99443569999858,81.99443569999858,81.99443569999858,81.99443569999858,82.99431989999721,82.99431989999721,83.53030559999752,v,1,0.5245360999979312,None,,,,,072424,001,2024-10-16_21h54.09.618,motorsquence,2024.2.1post4,60.01979452873557,2024-10-16 21h54.16.872018 +0530,
50,c,34,2,8,c,1,0.28120689999923343,None,8,2,34,2,,,,,83.54437569999936,,83.53105719999803,83.54437569999936,84.54456399999981,84.54456399999981,84.54456399999981,84.54456399999981,84.54456399999981,85.54463119999855,85.54463119999855,85.82977519999986,c,1,0.28120689999923343,None,,,,,072424,001,2024-10-16_21h54.09.618,motorsquence,2024.2.1post4,60.01979452873557,2024-10-16 21h54.16.872018 +0530,
-150,z,35,3,8,z,1,0.29520830000183196,None,8,3,35,3,,,,,85.84451819999958,,85.83046850000028,85.84451819999958,86.84457049999764,86.84457049999764,86.84457049999764,86.84457049999764,86.84457049999764,87.84468249999918,87.84468249999918,88.14704359999814,z,1,0.29520830000183196,None,,,,,072424,001,2024-10-16_21h54.09.618,motorsquence,2024.2.1post4,60.01979452873557,2024-10-16 21h54.16.872018 +0530,
-50,x,36,0,9,x,1,0.5135274999993271,None,9,0,36,0,,,,,88.16129639999781,,88.14770419999695,88.16129639999781,89.16128910000043,89.16128910000043,89.16128910000043,89.16128910000043,89.16128910000043,90.16129100000035,90.16129100000035,90.68071810000038,x,1,0.5135274999993271,None,,,,,072424,001,2024-10-16_21h54.09.618,motorsquence,2024.2.1post4,60.01979452873557,2024-10-16 21h54.16.872018 +0530,
150,v,37,1,9,v,1,0.26930759999959264,None,9,1,37,1,,,,,90.69474559999799,,90.6815119999992,90.69474559999799,91.69473819999985,91.69473819999985,91.69473819999985,91.69473819999985,91.69473819999985,92.69466919999832,92.69466919999832,92.97981419999996,v,1,0.26930759999959264,None,,,,,072424,001,2024-10-16_21h54.09.618,motorsquence,2024.2.1post4,60.01979452873557,2024-10-16 21h54.16.872018 +0530,
50,c,38,2,9,c,1,0.29902709999805666,None,9,2,38,2,,,,,92.99593409999943,,92.98046519999843,92.99593409999943,93.99492409999948,93.99492409999948,93.99492409999948,93.99492409999948,93.99492409999948,94.99483399999735,94.99483399999735,95.29678760000024,c,1,0.29902709999805666,None,,,,,072424,001,2024-10-16_21h54.09.618,motorsquence,2024.2.1post4,60.01979452873557,2024-10-16 21h54.16.872018 +0530,
-150,z,39,3,9,z,1,0.46445479999965755,None,9,3,39,3,,,,,95.31162869999753,,95.29740599999786,95.31162869999753,96.3115899000004,96.3115899000004,96.3115899000004,96.3115899000004,96.3115899000004,97.31157399999938,97.31157399999938,97.7802730000003,z,1,0.46445479999965755,None,,,,,072424,001,2024-10-16_21h54.09.618,motorsquence,2024.2.1post4,60.01979452873557,2024-10-16 21h54.16.872018 +0530,
-50,x,40,0,10,x,1,0.6539274999995541,None,10,0,40,0,,,,,97.79508419999911,,97.780920899997,97.79508419999911,98.79515509999692,98.79515509999692,98.79515509999692,98.79515509999692,98.79515509999692,99.79528169999685,99.79528169999685,100.46350270000039,x,1,0.6539274999995541,None,,,,,072424,001,2024-10-16_21h54.09.618,motorsquence,2024.2.1post4,60.01979452873557,2024-10-16 21h54.16.872018 +0530,
150,v,41,1,10,v,1,0.44841509999969276,None,10,1,41,1,,,,,100.47841329999937,,100.46415979999801,100.47841329999937,101.4784682999998,101.4784682999998,101.4784682999998,101.4784682999998,101.4784682999998,102.47851009999795,102.47851009999795,102.93056549999892,v,1,0.44841509999969276,None,,,,,072424,001,2024-10-16_21h54.09.618,motorsquence,2024.2.1post4,60.01979452873557,2024-10-16 21h54.16.872018 +0530,
50,c,42,2,10,c,1,0.39168269999936456,None,10,2,42,2,,,,,102.94517689999702,,102.93122149999908,102.94517689999702,103.94528869999704,103.94528869999704,103.94528869999704,103.94528869999704,103.94528869999704,104.94526689999839,104.94526689999839,105.34699089999776,c,1,0.39168269999936456,None,,,,,072424,001,2024-10-16_21h54.09.618,motorsquence,2024.2.1post4,60.01979452873557,2024-10-16 21h54.16.872018 +0530,
-150,z,43,3,10,z,1,0.49979749999693013,None,10,3,43,3,,,,,105.36195379999845,,105.3476434999975,105.36195379999845,106.36217339999712,106.36217339999712,106.36217339999712,106.36217339999712,106.36217339999712,107.3622323999989,107.3622323999989,107.86472589999903,z,1,0.49979749999693013,None,,,,,072424,001,2024-10-16_21h54.09.618,motorsquence,2024.2.1post4,60.01979452873557,2024-10-16 21h54.16.872018 +0530,
-50,x,44,0,11,x,1,0.5900785000012547,None,11,0,44,0,,,,,107.87890150000021,,107.86541329999818,107.87890150000021,108.87887349999801,108.87887349999801,108.87887349999801,108.87887349999801,108.87887349999801,109.87911299999905,109.87911299999905,110.48095709999689,x,1,0.5900785000012547,None,,,,,072424,001,2024-10-16_21h54.09.618,motorsquence,2024.2.1post4,60.01979452873557,2024-10-16 21h54.16.872018 +0530,
150,v,45,1,11,v,1,0.43096019999939017,None,11,1,45,1,,,,,110.4956549999988,,110.48165599999993,110.4956549999988,111.49581059999764,111.49581059999764,111.49581059999764,111.49581059999764,111.49581059999764,112.4957562999989,112.4957562999989,112.93081749999692,v,1,0.43096019999939017,None,,,,,072424,001,2024-10-16_21h54.09.618,motorsquence,2024.2.1post4,60.01979452873557,2024-10-16 21h54.16.872018 +0530,
50,c,46,2,11,c,1,0.3963270999993256,None,11,2,46,2,,,,,112.9455930999975,,112.9314701000003,112.9455930999975,113.94564489999902,113.94564489999902,113.94564489999902,113.94564489999902,113.94564489999902,114.94578929999989,114.94578929999989,115.3474991999974,c,1,0.3963270999993256,None,,,,,072424,001,2024-10-16_21h54.09.618,motorsquence,2024.2.1post4,60.01979452873557,2024-10-16 21h54.16.872018 +0530,
-150,z,47,3,11,z,1,0.6394241000016336,None,11,3,47,3,,,,,115.36239699999715,,115.348361999997,115.36239699999715,116.36271409999972,116.36271409999972,116.36271409999972,116.36271409999972,116.36271409999972,117.36248479999995,117.36248479999995,118.01453989999936,z,1,0.6394241000016336,None,,,,,072424,001,2024-10-16_21h54.09.618,motorsquence,2024.2.1post4,60.01979452873557,2024-10-16 21h54.16.872018 +0530,
-50,x,48,0,12,x,1,0.2742796999991697,None,12,0,48,0,,,,,118.02931399999943,,118.01539489999777,118.02931399999943,119.02938649999851,119.02938649999851,119.02938649999851,119.02938649999851,119.02938649999851,120.0294290999991,120.0294290999991,120.31427540000004,x,1,0.2742796999991697,None,,,,,072424,001,2024-10-16_21h54.09.618,motorsquence,2024.2.1post4,60.01979452873557,2024-10-16 21h54.16.872018 +0530,
150,v,49,1,12,v,1,0.3773265999989235,None,12,1,49,1,,,,,120.32927070000005,,120.31491779999851,120.32927070000005,121.32933319999938,121.32933319999938,121.32933319999938,121.32933319999938,121.32933319999938,122.32941799999753,122.32941799999753,122.71446899999864,v,1,0.3773265999989235,None,,,,,072424,001,2024-10-16_21h54.09.618,motorsquence,2024.2.1post4,60.01979452873557,2024-10-16 21h54.16.872018 +0530,
50,c,50,2,12,c,1,0.36636170000201673,None,12,2,50,2,,,,,122.72937829999864,,122.71511370000007,122.72937829999864,123.72942449999755,123.72942449999755,123.72942449999755,123.72942449999755,123.72942449999755,124.72944089999874,124.72944089999874,125.09893459999876,c,1,0.36636170000201673,None,,,,,072424,001,2024-10-16_21h54.09.618,motorsquence,2024.2.1post4,60.01979452873557,2024-10-16 21h54.16.872018 +0530,
-150,z,51,3,12,z,1,0.2590366999975231,None,12,3,51,3,,,,,125.11296279999806,,125.09987339999861,125.11296279999806,126.11305749999883,126.11305749999883,126.11305749999883,126.11305749999883,126.11305749999883,127.11288799999966,127.11288799999966,127.38086279999698,z,1,0.2590366999975231,None,,,,,072424,001,2024-10-16_21h54.09.618,motorsquence,2024.2.1post4,60.01979452873557,2024-10-16 21h54.16.872018 +0530,
-50,x,52,0,13,x,1,0.2192146999987017,None,13,0,52,0,,,,,127.39614520000032,,127.3812091999971,127.39614520000032,128.39624650000042,128.39624650000042,128.39624650000042,128.39624650000042,128.39624650000042,129.39627159999873,129.39627159999873,129.63210769999932,x,1,0.2192146999987017,None,,,,,072424,001,2024-10-16_21h54.09.618,motorsquence,2024.2.1post4,60.01979452873557,2024-10-16 21h54.16.872018 +0530,
150,v,53,1,13,v,1,0.35332660000131,None,13,1,53,1,,,,,129.646542399998,,129.63294189999942,129.646542399998,130.64697319999686,130.64697319999686,130.64697319999686,130.64697319999686,130.64697319999686,131.64640879999934,131.64640879999934,132.01468139999997,v,1,0.35332660000131,None,,,,,072424,001,2024-10-16_21h54.09.618,motorsquence,2024.2.1post4,60.01979452873557,2024-10-16 21h54.16.872018 +0530,
50,c,54,2,13,c,1,0.27006489999985206,None,13,2,54,2,,,,,132.0297154999971,,132.01532079999743,132.0297154999971,133.02981929999805,133.02981929999805,133.02981929999805,133.02981929999805,133.02981929999805,134.0298647999989,134.0298647999989,134.31502609999734,c,1,0.27006489999985206,None,,,,,072424,001,2024-10-16_21h54.09.618,motorsquence,2024.2.1post4,60.01979452873557,2024-10-16 21h54.16.872018 +0530,
-150,z,55,3,13,z,1,0.10086799999771756,None,13,3,55,3,,,,,134.329842799998,,134.31567729999733,134.329842799998,135.3299549000003,135.3299549000003,135.3299549000003,135.3299549000003,135.3299549000003,136.32999500000005,136.32999500000005,136.4480397999978,z,1,0.10086799999771756,None,,,,,072424,001,2024-10-16_21h54.09.618,motorsquence,2024.2.1post4,60.01979452873557,2024-10-16 21h54.16.872018 +0530,
-50,x,56,0,14,x,1,0.4574706999992486,None,14,0,56,0,,,,,136.4633219999996,,136.4486896999988,136.4633219999996,137.46335859999817,137.46335859999817,137.46335859999817,137.46335859999817,137.46335859999817,138.46337349999885,138.46337349999885,138.93181289999848,x,1,0.4574706999992486,None,,,,,072424,001,2024-10-16_21h54.09.618,motorsquence,2024.2.1post4,60.01979452873557,2024-10-16 21h54.16.872018 +0530,
150,v,57,1,14,v,1,0.46285229999921285,None,14,1,57,1,,,,,138.94674309999755,,138.93245579999711,138.94674309999755,139.9467571999994,139.9467571999994,139.9467571999994,139.9467571999994,139.9467571999994,140.94676939999772,140.94676939999772,141.4156817999974,v,1,0.46285229999921285,None,,,,,072424,001,2024-10-16_21h54.09.618,motorsquence,2024.2.1post4,60.01979452873557,2024-10-16 21h54.16.872018 +0530,
50,c,58,2,14,c,1,0.8135614999991958,None,14,2,58,2,,,,,141.43026079999981,,141.4163241999995,141.43026079999981,142.43027079999956,142.43027079999956,142.43027079999956,142.43027079999956,142.43027079999956,143.43029620000016,143.43029620000016,144.24863299999924,c,1,0.8135614999991958,None,,,,,072424,001,2024-10-16_21h54.09.618,motorsquence,2024.2.1post4,60.01979452873557,2024-10-16 21h54.16.872018 +0530,
-150,z,59,3,14,z,1,0.539979699999094,None,14,3,59,3,,,,,144.2636410999985,,144.24928530000034,144.2636410999985,145.26370749999842,145.26370749999842,145.26370749999842,145.26370749999842,145.26370749999842,146.26385449999725,146.26385449999725,146.8153198,z,1,0.539979699999094,None,,,,,072424,001,2024-10-16_21h54.09.618,motorsquence,2024.2.1post4,60.01979452873557,2024-10-16 21h54.16.872018 +0530,
-50,x,60,0,15,x,1,0.4062586999971245,None,15,0,60,0,,,,,146.83037299999705,,146.81597580000016,146.83037299999705,147.83048309999867,147.83048309999867,147.83048309999867,147.83048309999867,147.83048309999867,148.83049149999715,148.83049149999715,149.24940140000035,x,1,0.4062586999971245,None,,,,,072424,001,2024-10-16_21h54.09.618,motorsquence,2024.2.1post4,60.01979452873557,2024-10-16 21h54.16.872018 +0530,
150,v,61,1,15,v,1,0.49230960000204504,None,15,1,61,1,,,,,149.26400099999955,,149.25011470000027,149.26400099999955,150.26407279999694,150.26407279999694,150.26407279999694,150.26407279999694,150.26407279999694,151.2640164000004,151.2640164000004,151.76570119999815,v,1,0.49230960000204504,None,,,,,072424,001,2024-10-16_21h54.09.618,motorsquence,2024.2.1post4,60.01979452873557,2024-10-16 21h54.16.872018 +0530,
50,c,62,2,15,c,1,0.4841685999999754,None,15,2,62,2,,,,,151.78071459999774,,151.76637929999924,151.78071459999774,152.780850799998,152.780850799998,152.780850799998,152.780850799998,152.780850799998,153.7806939000002,153.7806939000002,154.28211089999968,c,1,0.4841685999999754,None,,,,,072424,001,2024-10-16_21h54.09.618,motorsquence,2024.2.1post4,60.01979452873557,2024-10-16 21h54.16.872018 +0530,
-150,z,63,3,15,z,1,0.5686394000003929,None,15,3,63,3,,,,,154.29732809999769,,154.2827748999989,154.29732809999769,155.2974703999971,155.2974703999971,155.2974703999971,155.2974703999971,155.2974703999971,156.29757609999797,156.29757609999797,156.88333249999778,z,1,0.5686394000003929,None,,,,,072424,001,2024-10-16_21h54.09.618,motorsquence,2024.2.1post4,60.01979452873557,2024-10-16 21h54.16.872018 +0530,
-50,x,64,0,16,x,1,1.0542528000005404,None,16,0,64,0,,,,,156.89754509999693,,156.8840178999999,156.89754509999693,157.89751249999972,157.89751249999972,157.89751249999972,157.89751249999972,157.89751249999972,158.89757479999753,158.89757479999753,159.96595039999738,x,1,1.0542528000005404,None,,,,,072424,001,2024-10-16_21h54.09.618,motorsquence,2024.2.1post4,60.01979452873557,2024-10-16 21h54.16.872018 +0530,
150,v,65,1,16,v,1,0.763920400000643,None,16,1,65,1,,,,,159.9809123999985,,159.9666120999973,159.9809123999985,160.98087509999823,160.98087509999823,160.98087509999823,160.98087509999823,160.98087509999823,161.98101319999842,161.98101319999842,162.7489330999997,v,1,0.763920400000643,None,,,,,072424,001,2024-10-16_21h54.09.618,motorsquence,2024.2.1post4,60.01979452873557,2024-10-16 21h54.16.872018 +0530,
50,c,66,2,16,c,1,0.5269076000004134,None,16,2,66,2,,,,,162.7643078000001,,162.7492949999978,162.7643078000001,163.76460939999743,163.76460939999743,163.76460939999743,163.76460939999743,163.76460939999743,164.7643277999996,164.7643277999996,165.29949320000014,c,1,0.5269076000004134,None,,,,,072424,001,2024-10-16_21h54.09.618,motorsquence,2024.2.1post4,60.01979452873557,2024-10-16 21h54.16.872018 +0530,
-150,z,67,3,16,z,1,0.5769507000004523,None,16,3,67,3,,,,,165.31459079999695,,165.3001387000004,165.31459079999695,166.3146233999978,166.3146233999978,166.3146233999978,166.3146233999978,166.3146233999978,167.31457229999796,167.31457229999796,167.89999700000044,z,1,0.5769507000004523,None,,,,,072424,001,2024-10-16_21h54.09.618,motorsquence,2024.2.1post4,60.01979452873557,2024-10-16 21h54.16.872018 +0530,
-50,x,68,0,17,x,1,0.2799963999968895,None,17,0,68,0,,,,,167.91478469999856,,167.9007223999979,167.91478469999856,168.91474489999746,168.91474489999746,168.91474489999746,168.91474489999746,168.91474489999746,169.91469949999737,169.91469949999737,170.20022909999898,x,1,0.2799963999968895,None,,,,,072424,001,2024-10-16_21h54.09.618,motorsquence,2024.2.1post4,60.01979452873557,2024-10-16 21h54.16.872018 +0530,
150,v,69,1,17,v,1,0.3416302000005089,None,17,1,69,1,,,,,170.2148888999982,,170.20089069999813,170.2148888999982,171.21492379999836,171.21492379999836,171.21492379999836,171.21492379999836,171.21492379999836,172.21497149999777,172.21497149999777,172.5665416999982,v,1,0.3416302000005089,None,,,,,072424,001,2024-10-16_21h54.09.618,motorsquence,2024.2.1post4,60.01979452873557,2024-10-16 21h54.16.872018 +0530,
50,c,70,2,17,c,1,0.2774568000022555,None,17,2,70,2,,,,,172.58149279999998,,172.56718569999794,172.58149279999998,173.5816124999983,173.5816124999983,173.5816124999983,173.5816124999983,173.5816124999983,174.58153279999897,174.58153279999897,174.86659789999976,c,1,0.2774568000022555,None,,,,,072424,001,2024-10-16_21h54.09.618,motorsquence,2024.2.1post4,60.01979452873557,2024-10-16 21h54.16.872018 +0530,
-150,z,71,3,17,z,1,0.3052776999975322,None,17,3,71,3,,,,,174.88170379999792,,174.86725239999942,174.88170379999792,175.88189829999828,175.88189829999828,175.88189829999828,175.88189829999828,175.88189829999828,176.8819317999987,176.8819317999987,177.2000599999992,z,1,0.3052776999975322,None,,,,,072424,001,2024-10-16_21h54.09.618,motorsquence,2024.2.1post4,60.01979452873557,2024-10-16 21h54.16.872018 +0530,
-50,x,72,0,18,x,1,0.2594304000012926,None,18,0,72,0,,,,,177.21499969999786,,177.20077619999938,177.21499969999786,178.21505499999694,178.21505499999694,178.21505499999694,178.21505499999694,178.21505499999694,179.21521459999713,179.21521459999713,179.48404969999683,x,1,0.2594304000012926,None,,,,,072424,001,2024-10-16_21h54.09.618,motorsquence,2024.2.1post4,60.01979452873557,2024-10-16 21h54.16.872018 +0530,
150,v,73,1,18,v,1,0.2318111000022327,None,18,1,73,1,,,,,179.49872499999765,,179.4847974000004,179.49872499999765,180.49870969999756,180.49870969999756,180.49870969999756,180.49870969999756,180.49870969999756,181.49874309999723,181.49874309999723,181.73430670000016,v,1,0.2318111000022327,None,,,,,072424,001,2024-10-16_21h54.09.618,motorsquence,2024.2.1post4,60.01979452873557,2024-10-16 21h54.16.872018 +0530,
50,c,74,2,18,c,1,0.4819606000019121,None,18,2,74,2,,,,,181.74866800000018,,181.73494550000032,181.74866800000018,182.74856969999746,182.74856969999746,182.74856969999746,182.74856969999746,182.74856969999746,183.74890589999995,183.74890589999995,184.23418279999896,c,1,0.4819606000019121,None,,,,,072424,001,2024-10-16_21h54.09.618,motorsquence,2024.2.1post4,60.01979452873557,2024-10-16 21h54.16.872018 +0530,
-150,z,75,3,18,z,1,0.35160220000034315,None,18,3,75,3,,,,,184.2486226999972,,184.23485900000014,184.2486226999972,185.2486887999985,185.2486887999985,185.2486887999985,185.2486887999985,185.2486887999985,186.248816299998,186.248816299998,186.61705299999812,z,1,0.35160220000034315,None,,,,,072424,001,2024-10-16_21h54.09.618,motorsquence,2024.2.1post4,60.01979452873557,2024-10-16 21h54.16.872018 +0530,
-50,x,76,0,19,x,1,0.42476410000017495,None,19,0,76,0,,,,,186.63209359999746,,186.61769119999735,186.63209359999746,187.63217379999696,187.63217379999696,187.63217379999696,187.63217379999696,187.63217379999696,188.6321433999983,188.6321433999983,189.06769879999774,x,1,0.42476410000017495,None,,,,,072424,001,2024-10-16_21h54.09.618,motorsquence,2024.2.1post4,60.01979452873557,2024-10-16 21h54.16.872018 +0530,
150,v,77,1,19,v,1,0.3863738999971247,None,19,1,77,1,,,,,189.0823356999972,,189.06844289999935,189.0823356999972,190.08237530000042,190.08237530000042,190.08237530000042,190.08237530000042,190.08237530000042,191.0824111999973,191.0824111999973,191.48384710000028,v,1,0.3863738999971247,None,,,,,072424,001,2024-10-16_21h54.09.618,motorsquence,2024.2.1post4,60.01979452873557,2024-10-16 21h54.16.872018 +0530,
50,c,78,2,19,c,1,0.348727599997801,None,19,2,78,2,,,,,191.49894629999835,,191.48445229999925,191.49894629999835,192.49898389999726,192.49898389999726,192.49898389999726,192.49898389999726,192.49898389999726,193.4991259999988,193.4991259999988,193.85156350000034,c,1,0.348727599997801,None,,,,,072424,001,2024-10-16_21h54.09.618,motorsquence,2024.2.1post4,60.01979452873557,2024-10-16 21h54.16.872018 +0530,
-150,z,79,3,19,z,1,0.2860575999984576,None,19,3,79,3,,,,,193.86575319999974,,193.85224620000008,193.86575319999974,194.8657428999977,194.8657428999977,194.8657428999977,194.8657428999977,194.8657428999977,195.86579039999924,195.86579039999924,196.16685879999932,z,1,0.2860575999984576,None,,,,,072424,001,2024-10-16_21h54.09.618,motorsquence,2024.2.1post4,60.01979452873557,2024-10-16 21h54.16.872018 +0530,
-50,x,80,0,20,x,1,0.3181019000003289,None,20,0,80,0,,,,,196.18246340000042,,196.16721809999945,196.18246340000042,197.1826403999985,197.1826403999985,197.1826403999985,197.1826403999985,197.1826403999985,198.18255179999687,198.18255179999687,198.51745680000022,x,1,0.3181019000003289,None,,,,,072424,001,2024-10-16_21h54.09.618,motorsquence,2024.2.1post4,60.01979452873557,2024-10-16 21h54.16.872018 +0530,
150,v,81,1,20,v,1,0.4357858000003034,None,20,1,81,1,,,,,198.53258319999804,,198.51810959999784,198.53258319999804,199.53286739999749,199.53286739999749,199.53286739999749,199.53286739999749,199.53286739999749,200.5328845999975,200.5328845999975,200.98434160000033,v,1,0.4357858000003034,None,,,,,072424,001,2024-10-16_21h54.09.618,motorsquence,2024.2.1post4,60.01979452873557,2024-10-16 21h54.16.872018 +0530,
50,c,82,2,20,c,1,0.47327360000053886,None,20,2,82,2,,,,,200.99935529999857,,200.98500280000007,200.99935529999857,201.99964419999742,201.99964419999742,201.99964419999742,201.99964419999742,201.99964419999742,202.99951569999757,202.99951569999757,203.4846918000003,c,1,0.47327360000053886,None,,,,,072424,001,2024-10-16_21h54.09.618,motorsquence,2024.2.1post4,60.01979452873557,2024-10-16 21h54.16.872018 +0530,
-150,z,83,3,20,z,1,0.49782279999999446,None,20,3,83,3,,,,,203.49962169999708,,203.48542839999936,203.49962169999708,204.4996661999976,204.4996661999976,204.4996661999976,204.4996661999976,204.4996661999976,205.49967219999962,205.49967219999962,206.00129869999728,z,1,0.49782279999999446,None,,,,,072424,001,2024-10-16_21h54.09.618,motorsquence,2024.2.1post4,60.01979452873557,2024-10-16 21h54.16.872018 +0530,
-50,x,84,0,21,x,1,0.5693730000020878,None,21,0,84,0,,,,,206.0162418,,206.0019661999977,206.0162418,207.01628699999856,207.01628699999856,207.01628699999856,207.01628699999856,207.01628699999856,208.01638559999992,208.01638559999992,208.60141809999914,x,1,0.5693730000020878,None,,,,,072424,001,2024-10-16_21h54.09.618,motorsquence,2024.2.1post4,60.01979452873557,2024-10-16 21h54.16.872018 +0530,
150,v,85,1,21,v,1,0.746151600000303,None,21,1,85,1,,,,,208.61659299999883,,208.60213490000024,208.61659299999883,209.61640909999915,209.61640909999915,209.61640909999915,209.61640909999915,209.61640909999915,210.61654160000035,210.61654160000035,211.36831339999844,v,1,0.746151600000303,None,,,,,072424,001,2024-10-16_21h54.09.618,motorsquence,2024.2.1post4,60.01979452873557,2024-10-16 21h54.16.872018 +0530,
50,c,86,2,21,c,1,0.7701319000007061,None,21,2,86,2,,,,,211.3830973999975,,211.36895430000004,211.3830973999975,212.38326219999726,212.38326219999726,212.38326219999726,212.38326219999726,212.38326219999726,213.38344639999923,213.38344639999923,214.1686273999985,c,1,0.7701319000007061,None,,,,,072424,001,2024-10-16_21h54.09.618,motorsquence,2024.2.1post4,60.01979452873557,2024-10-16 21h54.16.872018 +0530,
-150,z,87,3,21,z,1,0.4388738999987254,None,21,3,87,3,,,,,214.1834123999979,,214.16942859999835,214.1834123999979,215.1835194999985,215.1835194999985,215.1835194999985,215.1835194999985,215.1835194999985,216.18348989999868,216.18348989999868,216.6354427999977,z,1,0.4388738999987254,None,,,,,072424,001,2024-10-16_21h54.09.618,motorsquence,2024.2.1post4,60.01979452873557,2024-10-16 21h54.16.872018 +0530,
-50,x,88,0,22,x,1,0.5401926000013191,None,22,0,88,0,,,,,216.65009889999783,,216.63608389999717,216.65009889999783,217.65006439999706,217.65006439999706,217.65006439999706,217.65006439999706,217.65006439999706,218.65014549999978,218.65014549999978,219.2021681999977,x,1,0.5401926000013191,None,,,,,072424,001,2024-10-16_21h54.09.618,motorsquence,2024.2.1post4,60.01979452873557,2024-10-16 21h54.16.872018 +0530,
150,v,89,1,22,v,1,0.6696563000004971,None,22,1,89,1,,,,,219.21683539999867,,219.20287370000005,219.21683539999867,220.21704529999988,220.21704529999988,220.21704529999988,220.21704529999988,220.21704529999988,221.2169815999987,221.2169815999987,221.90198299999975,v,1,0.6696563000004971,None,,,,,072424,001,2024-10-16_21h54.09.618,motorsquence,2024.2.1post4,60.01979452873557,2024-10-16 21h54.16.872018 +0530,
50,c,90,2,22,c,1,0.35819439999977476,None,22,2,90,2,,,,,221.91690409999865,,221.90264000000025,221.91690409999865,222.91697099999874,222.91697099999874,222.91697099999874,222.91697099999874,222.91697099999874,223.91705159999765,223.91705159999765,224.28549719999864,c,1,0.35819439999977476,None,,,,,072424,001,2024-10-16_21h54.09.618,motorsquence,2024.2.1post4,60.01979452873557,2024-10-16 21h54.16.872018 +0530,
-150,z,91,3,22,z,1,0.8820443000004161,None,22,3,91,3,,,,,224.3005295999974,,224.28614050000033,224.3005295999974,225.30047649999688,225.30047649999688,225.30047649999688,225.30047649999688,225.30047649999688,226.3006514999979,226.3006514999979,227.18628389999867,z,1,0.8820443000004161,None,,,,,072424,001,2024-10-16_21h54.09.618,motorsquence,2024.2.1post4,60.01979452873557,2024-10-16 21h54.16.872018 +0530,
-50,x,92,0,23,x,1,0.4602472000005946,None,23,0,92,0,,,,,227.20056509999995,,227.1869786999996,227.20056509999995,228.20064049999928,228.20064049999928,228.20064049999928,228.20064049999928,228.20064049999928,229.20063429999936,229.20063429999936,229.6682397000004,x,1,0.4602472000005946,None,,,,,072424,001,2024-10-16_21h54.09.618,motorsquence,2024.2.1post4,60.01979452873557,2024-10-16 21h54.16.872018 +0530,
150,v,93,1,23,v,1,0.545132499999454,None,23,1,93,1,,,,,229.6838973999984,,229.66863109999758,229.6838973999984,230.6673656999992,230.6673656999992,230.6673656999992,230.6673656999992,230.68428829999903,231.66722149999987,231.66722149999987,232.21864829999686,v,1,0.545132499999454,None,,,,,072424,001,2024-10-16_21h54.09.618,motorsquence,2024.2.1post4,60.01979452873557,2024-10-16 21h54.16.872018 +0530,
50,c,94,2,23,c,1,0.6842585999984294,None,23,2,94,2,,,,,232.23421260000032,,232.2191430999992,232.23421260000032,233.23421739999685,233.23421739999685,233.23421739999685,233.23421739999685,233.23421739999685,234.2341054999997,234.2341054999997,234.9354773999985,c,1,0.6842585999984294,None,,,,,072424,001,2024-10-16_21h54.09.618,motorsquence,2024.2.1post4,60.01979452873557,2024-10-16 21h54.16.872018 +0530,
-150,z,95,3,23,z,1,0.530501400000503,None,23,3,95,3,,,,,234.95085850000032,,234.93580999999904,234.95085850000032,235.95112019999942,235.95112019999942,235.95112019999942,235.95112019999942,235.95112019999942,236.95091089999914,236.95091089999914,237.4862506999998,z,1,0.530501400000503,None,,,,,072424,001,2024-10-16_21h54.09.618,motorsquence,2024.2.1post4,60.01979452873557,2024-10-16 21h54.16.872018 +0530,
-50,x,96,0,24,x,1,0.38113679999878514,None,24,0,96,0,,,,,237.50091809999867,,237.4869058999975,237.50091809999867,238.5009078999974,238.5009078999974,238.5009078999974,238.5009078999974,238.5009078999974,239.501072199997,239.501072199997,239.8861827999972,x,1,0.38113679999878514,None,,,,,072424,001,2024-10-16_21h54.09.618,motorsquence,2024.2.1post4,60.01979452873557,2024-10-16 21h54.16.872018 +0530,
150,v,97,1,24,v,1,0.48334930000055465,None,24,1,97,1,,,,,239.90205069999865,,239.88684439999997,239.90205069999865,240.9011219999993,240.9011219999993,240.9011219999993,240.9011219999993,240.9011219999993,241.90121279999948,241.90121279999948,242.3872502999984,v,1,0.48334930000055465,None,,,,,072424,001,2024-10-16_21h54.09.618,motorsquence,2024.2.1post4,60.01979452873557,2024-10-16 21h54.16.872018 +0530,
50,c,98,2,24,c,1,0.2870182000006025,None,24,2,98,2,,,,,242.40109259999736,,242.3879786999969,242.40109259999736,243.40141989999756,243.40141989999756,243.40141989999756,243.40141989999756,243.40141989999756,244.4014274000001,244.4014274000001,244.7032311999974,c,1,0.2870182000006025,None,,,,,072424,001,2024-10-16_21h54.09.618,motorsquence,2024.2.1post4,60.01979452873557,2024-10-16 21h54.16.872018 +0530,
-150,z,99,3,24,z,1,0.9745489999986603,None,24,3,99,3,,,,,244.71803720000025,,244.70396039999832,244.71803720000025,245.7179866999977,245.7179866999977,245.7179866999977,245.7179866999977,245.7179866999977,246.71789629999694,246.71789629999694,247.70319219999874,z,1,0.9745489999986603,None,,,,,072424,001,2024-10-16_21h54.09.618,motorsquence,2024.2.1post4,60.01979452873557,2024-10-16 21h54.16.872018 +0530,
-50,x,100,0,25,x,1,0.32681079999747453,None,25,0,100,0,,,,,247.71816679999756,,247.7040323000001,247.71816679999756,248.71829470000011,248.71829470000011,248.71829470000011,248.71829470000011,248.71829470000011,249.71837849999793,249.71837849999793,250.05343139999968,x,1,0.32681079999747453,None,,,,,072424,001,2024-10-16_21h54.09.618,motorsquence,2024.2.1post4,60.01979452873557,2024-10-16 21h54.16.872018 +0530,
150,v,101,1,25,v,1,0.2936283999988518,None,25,1,101,1,,,,,250.0681083999989,,250.05407849999756,250.0681083999989,251.06824939999933,251.06824939999933,251.06824939999933,251.06824939999933,251.06824939999933,252.06815859999915,252.06815859999915,252.369917,v,1,0.2936283999988518,None,,,,,072424,001,2024-10-16_21h54.09.618,motorsquence,2024.2.1post4,60.01979452873557,2024-10-16 21h54.16.872018 +0530,
50,c,102,2,25,c,1,0.31512089999887394,None,25,2,102,2,,,,,252.38486600000033,,252.37055699999837,252.38486600000033,253.3850444999989,253.3850444999989,253.3850444999989,253.3850444999989,253.3850444999989,254.38494219999848,254.38494219999848,254.70343659999708,c,1,0.31512089999887394,None,,,,,072424,001,2024-10-16_21h54.09.618,motorsquence,2024.2.1post4,60.01979452873557,2024-10-16 21h54.16.872018 +0530,
-150,z,103,3,25,z,1,0.4233323000007658,None,25,3,103,3,,,,,254.71827139999732,,254.70409629999995,254.71827139999732,255.71833960000004,255.71833960000004,255.71833960000004,255.71833960000004,255.71833960000004,256.7184200999982,256.7184200999982,257.1538632999982,z,1,0.4233323000007658,None,,,,,072424,001,2024-10-16_21h54.09.618,motorsquence,2024.2.1post4,60.01979452873557,2024-10-16 21h54.16.872018 +0530,
-50,x,104,0,26,x,1,0.47229389999847626,None,26,0,104,0,,,,,257.16855699999724,,257.1545189999997,257.16855699999724,258.16861979999885,258.16861979999885,258.16861979999885,258.16861979999885,258.16861979999885,259.1686738999997,259.1686738999997,259.6539276000003,x,1,0.47229389999847626,None,,,,,072424,001,2024-10-16_21h54.09.618,motorsquence,2024.2.1post4,60.01979452873557,2024-10-16 21h54.16.872018 +0530,
150,v,105,1,26,v,1,0.43925469999885536,None,26,1,105,1,,,,,259.6685687999998,,259.65462449999904,259.6685687999998,260.6685000999969,260.6685000999969,260.6685000999969,260.6685000999969,260.6685000999969,261.6687469999997,261.6687469999997,262.1203573999992,v,1,0.43925469999885536,None,,,,,072424,001,2024-10-16_21h54.09.618,motorsquence,2024.2.1post4,60.01979452873557,2024-10-16 21h54.16.872018 +0530,
50,c,106,2,26,c,1,0.2549643999991531,None,26,2,106,2,,,,,262.13542419999794,,262.12099659999876,262.13542419999794,263.1352928999986,263.1352928999986,263.1352928999986,263.1352928999986,263.1352928999986,264.1353569999992,264.1353569999992,264.4041576999989,c,1,0.2549643999991531,None,,,,,072424,001,2024-10-16_21h54.09.618,motorsquence,2024.2.1post4,60.01979452873557,2024-10-16 21h54.16.872018 +0530,
-150,z,107,3,26,z,1,0.2637152999996033,None,26,3,107,3,,,,,264.41886319999685,,264.4050994999998,264.41886319999685,265.4188875,265.4188875,265.4188875,265.4188875,265.4188875,266.4189471999998,266.4189471999998,266.6873314000004,z,1,0.2637152999996033,None,,,,,072424,001,2024-10-16_21h54.09.618,motorsquence,2024.2.1post4,60.01979452873557,2024-10-16 21h54.16.872018 +0530,
-50,x,108,0,27,x,1,0.3260725999971328,None,27,0,108,0,,,,,266.7021047999988,,266.6879888000003,266.7021047999988,267.7021628000002,267.7021628000002,267.7021628000002,267.7021628000002,267.7021628000002,268.70226719999846,268.70226719999846,269.03731179999886,x,1,0.3260725999971328,None,,,,,072424,001,2024-10-16_21h54.09.618,motorsquence,2024.2.1post4,60.01979452873557,2024-10-16 21h54.16.872018 +0530,
150,v,109,1,27,v,1,0.3770876999988104,None,27,1,109,1,,,,,269.0522467999981,,269.0379600999986,269.0522467999981,270.05237569999736,270.05237569999736,270.05237569999736,270.05237569999736,270.05237569999736,271.0523874999999,271.0523874999999,271.4374112999976,v,1,0.3770876999988104,None,,,,,072424,001,2024-10-16_21h54.09.618,motorsquence,2024.2.1post4,60.01979452873557,2024-10-16 21h54.16.872018 +0530,
50,c,110,2,27,c,1,0.31792009999844595,None,27,2,110,2,,,,,271.45236730000033,,271.4382149999983,271.45236730000033,272.45241129999704,272.45241129999704,272.45241129999704,272.45241129999704,272.45241129999704,273.4524222999971,273.4524222999971,273.78744480000023,c,1,0.31792009999844595,None,,,,,072424,001,2024-10-16_21h54.09.618,motorsquence,2024.2.1post4,60.01979452873557,2024-10-16 21h54.16.872018 +0530,
-150,z,111,3,27,z,1,0.7402603999980784,None,27,3,111,3,,,,,273.8024372,,273.78808449999997,273.8024372,274.80267009999807,274.80267009999807,274.80267009999807,274.80267009999807,274.80267009999807,275.8027355999984,275.8027355999984,276.55462929999703,z,1,0.7402603999980784,None,,,,,072424,001,2024-10-16_21h54.09.618,motorsquence,2024.2.1post4,60.01979452873557,2024-10-16 21h54.16.872018 +0530,
-50,x,112,0,28,x,1,0.2698800999969535,None,28,0,112,0,,,,,276.56926499999827,,276.5553164999983,276.56926499999827,277.56928069999776,277.56928069999776,277.56928069999776,277.56928069999776,277.56928069999776,278.5692885999997,278.5692885999997,278.8543155999978,x,1,0.2698800999969535,None,,,,,072424,001,2024-10-16_21h54.09.618,motorsquence,2024.2.1post4,60.01979452873557,2024-10-16 21h54.16.872018 +0530,
150,v,113,1,28,v,1,0.8061756000024616,None,28,1,113,1,,,,,278.86948269999993,,278.85496449999846,278.86948269999993,279.8694235999974,279.8694235999974,279.8694235999974,279.8694235999974,279.8694235999974,280.8694336999979,280.8694336999979,281.6877256999978,v,1,0.8061756000024616,None,,,,,072424,001,2024-10-16_21h54.09.618,motorsquence,2024.2.1post4,60.01979452873557,2024-10-16 21h54.16.872018 +0530,
50,c,114,2,28,c,1,0.6108377000018663,None,28,2,114,2,,,,,281.7028283999971,,281.68836379999993,281.7028283999971,282.7028728999976,282.7028728999976,282.7028728999976,282.7028728999976,282.7028728999976,283.7029029999976,283.7029029999976,284.3219663999989,c,1,0.6108377000018663,None,,,,,072424,001,2024-10-16_21h54.09.618,motorsquence,2024.2.1post4,60.01979452873557,2024-10-16 21h54.16.872018 +0530,
-150,z,115,3,28,z,1,0.4843044999979611,None,28,3,115,3,,,,,284.3363363999997,,284.3226326999975,284.3363363999997,285.3364298999986,285.3364298999986,285.3364298999986,285.3364298999986,285.3364298999986,286.3364404999993,286.3364404999993,286.8380529999995,z,1,0.4843044999979611,None,,,,,072424,001,2024-10-16_21h54.09.618,motorsquence,2024.2.1post4,60.01979452873557,2024-10-16 21h54.16.872018 +0530,
-50,x,116,0,29,x,1,0.7607385000010254,None,29,0,116,0,,,,,286.8530006999972,,286.83870559999923,286.8530006999972,287.8531229,287.8531229,287.8531229,287.8531229,287.8531229,288.85306109999874,288.85306109999874,289.6210874999997,x,1,0.7607385000010254,None,,,,,072424,001,2024-10-16_21h54.09.618,motorsquence,2024.2.1post4,60.01979452873557,2024-10-16 21h54.16.872018 +0530,
150,v,117,1,29,v,1,0.4143498000012187,None,29,1,117,1,,,,,289.6364947999973,,289.6218190999971,289.6364947999973,290.6367410999992,290.6367410999992,290.6367410999992,290.6367410999992,290.6367410999992,291.6365076999973,291.6365076999973,292.0553222999988,v,1,0.4143498000012187,None,,,,,072424,001,2024-10-16_21h54.09.618,motorsquence,2024.2.1post4,60.01979452873557,2024-10-16 21h54.16.872018 +0530,
50,c,118,2,29,c,1,0.4431825000028766,None,29,2,118,2,,,,,292.0698338000002,,292.05612219999966,292.0698338000002,293.06991659999767,293.06991659999767,293.06991659999767,293.06991659999767,293.06991659999767,294.0699878999985,294.0699878999985,294.52209120000043,c,1,0.4431825000028766,None,,,,,072424,001,2024-10-16_21h54.09.618,motorsquence,2024.2.1post4,60.01979452873557,2024-10-16 21h54.16.872018 +0530,
-150,z,119,3,29,z,1,0.7731744999982766,None,29,3,119,3,,,,,294.5366873999992,,294.5228062999995,294.5366873999992,295.5367121999989,295.5367121999989,295.5367121999989,295.5367121999989,295.5367121999989,296.5367425999975,296.5367425999975,297.3218975999989,z,1,0.7731744999982766,None,,,,,072424,001,2024-10-16_21h54.09.618,motorsquence,2024.2.1post4,60.01979452873557,2024-10-16 21h54.16.872018 +0530,
-50,x,120,0,30,x,1,0.24352410000210511,None,30,0,120,0,,,,,297.33681760000036,,297.3225298999969,297.33681760000036,298.3368789999986,298.3368789999986,298.3368789999986,298.3368789999986,298.3368789999986,299.33690139999817,299.33690139999817,299.58888339999976,x,1,0.24352410000210511,None,,,,,072424,001,2024-10-16_21h54.09.618,motorsquence,2024.2.1post4,60.01979452873557,2024-10-16 21h54.16.872018 +0530,
150,v,121,1,30,v,1,0.3163684999999532,None,30,1,121,1,,,,,299.6036624999979,,299.589564599999,299.6036624999979,300.60362410000016,300.60362410000016,300.60362410000016,300.60362410000016,300.60362410000016,301.60370049999983,301.60370049999983,301.9216704999999,v,1,0.3163684999999532,None,,,,,072424,001,2024-10-16_21h54.09.618,motorsquence,2024.2.1post4,60.01979452873557,2024-10-16 21h54.16.872018 +0530,
50,c,122,2,30,c,1,0.33012500000040745,None,30,2,122,2,,,,,301.9370553999979,,301.92201449999993,301.9370553999979,302.9373209999976,302.9373209999976,302.9373209999976,302.9373209999976,302.9373209999976,303.9372893,303.9372893,304.2721046999977,c,1,0.33012500000040745,None,,,,,072424,001,2024-10-16_21h54.09.618,motorsquence,2024.2.1post4,60.01979452873557,2024-10-16 21h54.16.872018 +0530,
-150,z,123,3,30,z,1,1.3907586999994237,None,30,3,123,3,,,,,304.28703349999705,,304.27280450000035,304.28703349999705,305.2871196999986,305.2871196999986,305.2871196999986,305.2871196999986,305.2871196999986,306.2871406999984,306.2871406999984,307.68875169999956,z,1,1.3907586999994237,None,,,,,072424,001,2024-10-16_21h54.09.618,motorsquence,2024.2.1post4,60.01979452873557,2024-10-16 21h54.16.872018 +0530,
-50,x,124,0,31,x,1,0.7117372000029718,None,31,0,124,0,,,,,307.70388509999975,,307.6893929999969,307.70388509999975,308.7039955,308.7039955,308.7039955,308.7039955,308.7039955,309.7039991999991,309.7039991999991,310.4229684999991,x,1,0.7117372000029718,None,,,,,072424,001,2024-10-16_21h54.09.618,motorsquence,2024.2.1post4,60.01979452873557,2024-10-16 21h54.16.872018 +0530,
150,v,125,1,31,v,1,0.5583914999988338,None,31,1,125,1,,,,,310.43740219999745,,310.42361449999953,310.43740219999745,311.4376295000002,311.4376295000002,311.4376295000002,311.4376295000002,311.4376295000002,312.43772159999935,312.43772159999935,313.0058027999985,v,1,0.5583914999988338,None,,,,,072424,001,2024-10-16_21h54.09.618,motorsquence,2024.2.1post4,60.01979452873557,2024-10-16 21h54.16.872018 +0530,
50,c,126,2,31,c,1,0.5093683000013698,None,31,2,126,2,,,,,313.02072810000027,,313.00645749999967,313.02072810000027,314.02083669999774,314.02083669999774,314.02083669999774,314.02083669999774,314.02083669999774,315.020961299997,315.020961299997,315.5393385999996,c,1,0.5093683000013698,None,,,,,072424,001,2024-10-16_21h54.09.618,motorsquence,2024.2.1post4,60.01979452873557,2024-10-16 21h54.16.872018 +0530,
-150,z,127,3,31,z,1,0.5283443000007537,None,31,3,127,3,,,,,315.5541856999989,,315.5399757999985,315.5541856999989,316.55437229999734,316.55437229999734,316.55437229999734,316.55437229999734,316.55437229999734,317.55435079999734,317.55435079999734,318.0896901999986,z,1,0.5283443000007537,None,,,,,072424,001,2024-10-16_21h54.09.618,motorsquence,2024.2.1post4,60.01979452873557,2024-10-16 21h54.16.872018 +0530,
-50,x,128,0,32,x,1,0.444169200000033,None,32,0,128,0,,,,,318.10436990000017,,318.0904324000003,318.10436990000017,319.10436219999974,319.10436219999974,319.10436219999974,319.10436219999974,319.10436219999974,320.10442909999983,320.10442909999983,320.5565654999991,x,1,0.444169200000033,None,,,,,072424,001,2024-10-16_21h54.09.618,motorsquence,2024.2.1post4,60.01979452873557,2024-10-16 21h54.16.872018 +0530,
150,v,129,1,32,v,1,0.5199244000032195,None,32,1,129,1,,,,,320.57112140000027,,320.5572379999976,320.57112140000027,321.571229899997,321.571229899997,321.571229899997,321.571229899997,321.571229899997,322.5712145999969,322.5712145999969,323.1054891999993,v,1,0.5199244000032195,None,,,,,072424,001,2024-10-16_21h54.09.618,motorsquence,2024.2.1post4,60.01979452873557,2024-10-16 21h54.16.872018 +0530,
50,c,130,2,32,c,1,0.416907099999662,None,32,2,130,2,,,,,323.121169799997,,323.1058395999971,323.121169799997,324.1045747999997,324.1045747999997,324.1045747999997,324.1045747999997,324.1212949999972,325.1046697999991,325.1046697999991,325.5236850000001,c,1,0.416907099999662,None,,,,,072424,001,2024-10-16_21h54.09.618,motorsquence,2024.2.1post4,60.01979452873557,2024-10-16 21h54.16.872018 +0530,
-150,z,131,3,32,z,1,0.40693370000008144,None,32,3,131,3,,,,,325.5379804999975,,325.5243238000003,325.5379804999975,326.53816769999685,326.53816769999685,326.53816769999685,326.53816769999685,326.53816769999685,327.5381170999972,327.5381170999972,327.95646549999947,z,1,0.40693370000008144,None,,,,,072424,001,2024-10-16_21h54.09.618,motorsquence,2024.2.1post4,60.01979452873557,2024-10-16 21h54.16.872018 +0530,
-50,x,132,0,33,x,1,0.276473599999008,None,33,0,132,0,,,,,327.97137870000006,,327.9571240999976,327.97137870000006,328.97151680000024,328.97151680000024,328.97151680000024,328.97151680000024,328.97151680000024,329.97151159999703,329.97151159999703,330.25688479999735,x,1,0.276473599999008,None,,,,,072424,001,2024-10-16_21h54.09.618,motorsquence,2024.2.1post4,60.01979452873557,2024-10-16 21h54.16.872018 +0530,
150,v,133,1,33,v,1,0.5200860000004468,None,33,1,133,1,,,,,330.27171689999886,,330.2575599999982,330.27171689999886,331.2717453999976,331.2717453999976,331.2717453999976,331.2717453999976,331.2717453999976,332.27175649999845,332.27175649999845,332.8066865999972,v,1,0.5200860000004468,None,,,,,072424,001,2024-10-16_21h54.09.618,motorsquence,2024.2.1post4,60.01979452873557,2024-10-16 21h54.16.872018 +0530,
50,c,134,2,33,c,1,0.40586000000257627,None,33,2,134,2,,,,,332.82159749999846,,332.80733249999685,332.82159749999846,333.82167449999906,333.82167449999906,333.82167449999906,333.82167449999906,333.82167449999906,334.82176099999924,334.82176099999924,335.24010629999975,c,1,0.40586000000257627,None,,,,,072424,001,2024-10-16_21h54.09.618,motorsquence,2024.2.1post4,60.01979452873557,2024-10-16 21h54.16.872018 +0530,
-150,z,135,3,33,z,1,0.28433159999985946,None,33,3,135,3,,,,,335.2552364000003,,335.24075470000025,335.2552364000003,336.2552595999987,336.2552595999987,336.2552595999987,336.2552595999987,336.2552595999987,337.25520099999994,337.25520099999994,337.55717829999776,z,1,0.28433159999985946,None,,,,,072424,001,2024-10-16_21h54.09.618,motorsquence,2024.2.1post4,60.01979452873557,2024-10-16 21h54.16.872018 +0530,
-50,x,136,0,34,x,1,0.2147675000014715,None,34,0,136,0,,,,,337.5720210999971,,337.55782439999894,337.5720210999971,338.57214509999903,338.57214509999903,338.57214509999903,338.57214509999903,338.57214509999903,339.57208289999835,339.57208289999835,339.79049499999746,x,1,0.2147675000014715,None,,,,,072424,001,2024-10-16_21h54.09.618,motorsquence,2024.2.1post4,60.01979452873557,2024-10-16 21h54.16.872018 +0530,
150,v,137,1,34,v,1,0.3027488000006997,None,34,1,137,1,,,,,339.8052322000003,,339.7911342999978,339.8052322000003,340.8053688999971,340.8053688999971,340.8053688999971,340.8053688999971,340.8053688999971,341.80551600000035,341.80551600000035,342.12385449999783,v,1,0.3027488000006997,None,,,,,072424,001,2024-10-16_21h54.09.618,motorsquence,2024.2.1post4,60.01979452873557,2024-10-16 21h54.16.872018 +0530,
50,c,138,2,34,c,1,0.30655299999853014,None,34,2,138,2,,,,,342.13865989999977,,342.1245080999979,342.13865989999977,343.1389348999983,343.1389348999983,343.1389348999983,343.1389348999983,343.1389348999983,344.13894679999794,344.13894679999794,344.45722810000007,c,1,0.30655299999853014,None,,,,,072424,001,2024-10-16_21h54.09.618,motorsquence,2024.2.1post4,60.01979452873557,2024-10-16 21h54.16.872018 +0530,
-150,z,139,3,34,z,1,0.30281680000189226,None,34,3,139,3,,,,,344.47218679999787,,344.4579081999982,344.47218679999787,345.4722041999994,345.4722041999994,345.4722041999994,345.4722041999994,345.4722041999994,346.4722946999973,346.4722946999973,346.7907017999969,z,1,0.30281680000189226,None,,,,,072424,001,2024-10-16_21h54.09.618,motorsquence,2024.2.1post4,60.01979452873557,2024-10-16 21h54.16.872018 +0530,
-50,x,140,0,35,x,1,0.24274980000336654,None,35,0,140,0,,,,,346.8055303000001,,346.7913492999978,346.8055303000001,347.8057152000001,347.8057152000001,347.8057152000001,347.8057152000001,347.8057152000001,348.80567489999885,348.80567489999885,349.057538699999,x,1,0.24274980000336654,None,,,,,072424,001,2024-10-16_21h54.09.618,motorsquence,2024.2.1post4,60.01979452873557,2024-10-16 21h54.16.872018 +0530,
150,v,141,1,35,v,1,0.31571189999885974,None,35,1,141,1,,,,,349.0723309999994,,349.05794439999954,349.0723309999994,350.072645799999,350.072645799999,350.072645799999,350.072645799999,350.072645799999,351.0724429999973,351.0724429999973,351.3908245999992,v,1,0.31571189999885974,None,,,,,072424,001,2024-10-16_21h54.09.618,motorsquence,2024.2.1post4,60.01979452873557,2024-10-16 21h54.16.872018 +0530,
50,c,142,2,35,c,1,0.30913220000002184,None,35,2,142,2,,,,,351.40580939999927,,351.39145709999866,351.40580939999927,352.4058495999998,352.4058495999998,352.4058495999998,352.4058495999998,352.4058495999998,353.4060943000004,353.4060943000004,353.72488840000005,c,1,0.30913220000002184,None,,,,,072424,001,2024-10-16_21h54.09.618,motorsquence,2024.2.1post4,60.01979452873557,2024-10-16 21h54.16.872018 +0530,
-150,z,143,3,35,z,1,0.26293040000018664,None,35,3,143,3,,,,,353.7390751999992,,353.7257931999993,353.7390751999992,354.7392280999993,354.7392280999993,354.7392280999993,354.7392280999993,354.7392280999993,355.7393932999985,355.7393932999985,356.00788239999747,z,1,0.26293040000018664,None,,,,,072424,001,2024-10-16_21h54.09.618,motorsquence,2024.2.1post4,60.01979452873557,2024-10-16 21h54.16.872018 +0530,
-50,x,144,0,36,x,1,0.2755417000007583,None,36,0,144,0,,,,,356.0226239000003,,356.00854059999983,356.0226239000003,357.0227548999974,357.0227548999974,357.0227548999974,357.0227548999974,357.0227548999974,358.02271239999754,358.02271239999754,358.30780369999775,x,1,0.2755417000007583,None,,,,,072424,001,2024-10-16_21h54.09.618,motorsquence,2024.2.1post4,60.01979452873557,2024-10-16 21h54.16.872018 +0530,
150,v,145,1,36,v,1,0.3515308999994886,None,36,1,145,1,,,,,358.3226548999992,,358.3083525999973,358.3226548999992,359.32271989999936,359.32271989999936,359.32271989999936,359.32271989999936,359.32271989999936,360.3227802000001,360.3227802000001,360.6912596999973,v,1,0.3515308999994886,None,,,,,072424,001,2024-10-16_21h54.09.618,motorsquence,2024.2.1post4,60.01979452873557,2024-10-16 21h54.16.872018 +0530,
50,c,146,2,36,c,1,0.23208440000234987,None,36,2,146,2,,,,,360.70608869999705,,360.6919194000002,360.70608869999705,361.70626809999885,361.70626809999885,361.70626809999885,361.70626809999885,361.70626809999885,362.7063117999969,362.7063117999969,362.94146869999895,c,1,0.23208440000234987,None,,,,,072424,001,2024-10-16_21h54.09.618,motorsquence,2024.2.1post4,60.01979452873557,2024-10-16 21h54.16.872018 +0530,
-150,z,147,3,36,z,1,0.19160160000319593,None,36,3,147,3,,,,,362.9562062999976,,362.9421113999997,362.9562062999976,363.9563391999982,363.9563391999982,363.9563391999982,363.9563391999982,363.9563391999982,364.9564071999994,364.9564071999994,365.1579907999985,z,1,0.19160160000319593,None,,,,,072424,001,2024-10-16_21h54.09.618,motorsquence,2024.2.1post4,60.01979452873557,2024-10-16 21h54.16.872018 +0530,
-50,x,148,0,37,x,1,0.34855240000251797,None,37,0,148,0,,,,,365.1729857999999,,365.1586181999992,365.1729857999999,366.17310129999896,366.17310129999896,366.17310129999896,366.17310129999896,366.17310129999896,367.1731215999971,367.1731215999971,367.5257867,x,1,0.34855240000251797,None,,,,,072424,001,2024-10-16_21h54.09.618,motorsquence,2024.2.1post4,60.01979452873557,2024-10-16 21h54.16.872018 +0530,
150,v,149,1,37,v,1,0.3055616000019654,None,37,1,149,1,,,,,367.5397968999969,,367.5264131999975,367.5397968999969,368.5399142999995,368.5399142999995,368.5399142999995,368.5399142999995,368.5399142999995,369.53996069999994,369.53996069999994,369.85878239999874,v,1,0.3055616000019654,None,,,,,072424,001,2024-10-16_21h54.09.618,motorsquence,2024.2.1post4,60.01979452873557,2024-10-16 21h54.16.872018 +0530,
50,c,150,2,37,c,1,0.392634600000747,None,37,2,150,2,,,,,369.8732414999977,,369.8597359999985,369.8732414999977,370.8732285999977,370.8732285999977,370.8732285999977,370.8732285999977,370.8732285999977,371.8733106999971,371.8733106999971,372.2750922999985,c,1,0.392634600000747,None,,,,,072424,001,2024-10-16_21h54.09.618,motorsquence,2024.2.1post4,60.01979452873557,2024-10-16 21h54.16.872018 +0530,
-150,z,151,3,37,z,1,0.2674224000002141,None,37,3,151,3,,,,,372.2900133999974,,372.2757167999989,372.2900133999974,373.28998449999926,373.28998449999926,373.28998449999926,373.28998449999926,373.28998449999926,374.2902017999986,374.2902017999986,374.5748485999975,z,1,0.2674224000002141,None,,,,,072424,001,2024-10-16_21h54.09.618,motorsquence,2024.2.1post4,60.01979452873557,2024-10-16 21h54.16.872018 +0530,
-50,x,152,0,38,x,1,0.24387800000113202,None,38,0,152,0,,,,,374.59006899999804,,374.57550809999884,374.59006899999804,375.59016439999687,375.59016439999687,375.59016439999687,375.59016439999687,375.59016439999687,376.59035589999985,376.59035589999985,376.8421524999976,x,1,0.24387800000113202,None,,,,,072424,001,2024-10-16_21h54.09.618,motorsquence,2024.2.1post4,60.01979452873557,2024-10-16 21h54.16.872018 +0530,
150,v,153,1,38,v,1,0.22537369999918155,None,38,1,153,1,,,,,376.8568237999971,,376.8428458999988,376.8568237999971,377.85683419999987,377.85683419999987,377.85683419999987,377.85683419999987,377.85683419999987,378.85687979999784,378.85687979999784,379.0918598999997,v,1,0.22537369999918155,None,,,,,072424,001,2024-10-16_21h54.09.618,motorsquence,2024.2.1post4,60.01979452873557,2024-10-16 21h54.16.872018 +0530,
50,c,154,2,38,c,1,0.24594120000256225,None,38,2,154,2,,,,,379.1069549999993,,379.0925350999969,379.1069549999993,380.1070039999977,380.1070039999977,380.1070039999977,380.1070039999977,380.1070039999977,381.10703609999837,381.10703609999837,381.358815399999,c,1,0.24594120000256225,None,,,,,072424,001,2024-10-16_21h54.09.618,motorsquence,2024.2.1post4,60.01979452873557,2024-10-16 21h54.16.872018 +0530,
-150,z,155,3,38,z,1,0.3714332999988983,None,38,3,155,3,,,,,381.37379809999766,,381.35950669999875,381.37379809999766,382.3738064999998,382.3738064999998,382.3738064999998,382.3738064999998,382.3738064999998,383.3738698999987,383.3738698999987,383.75978570000007,z,1,0.3714332999988983,None,,,,,072424,001,2024-10-16_21h54.09.618,motorsquence,2024.2.1post4,60.01979452873557,2024-10-16 21h54.16.872018 +0530,
-50,x,156,0,39,x,1,0.31223680000039167,None,39,0,156,0,,,,,383.7738707999997,,383.7605917999972,383.7738707999997,384.7740124999982,384.7740124999982,384.7740124999982,384.7740124999982,384.7740124999982,385.7741575999971,385.7741575999971,386.09267439999894,x,1,0.31223680000039167,None,,,,,072424,001,2024-10-16_21h54.09.618,motorsquence,2024.2.1post4,60.01979452873557,2024-10-16 21h54.16.872018 +0530,
150,v,157,1,39,v,1,0.45628909999868483,None,39,1,157,1,,,,,386.1073824999985,,386.09331629999724,386.1073824999985,387.10725909999746,387.10725909999746,387.10725909999746,387.10725909999746,387.10725909999746,388.1073815999989,388.1073815999989,388.5759737999979,v,1,0.45628909999868483,None,,,,,072424,001,2024-10-16_21h54.09.618,motorsquence,2024.2.1post4,60.01979452873557,2024-10-16 21h54.16.872018 +0530,
50,c,158,2,39,c,1,0.43518519999997807,None,39,2,158,2,,,,,388.5907124999976,,388.5766229000001,388.5907124999976,389.59078939999745,389.59078939999745,389.59078939999745,389.59078939999745,389.59078939999745,390.59076939999795,390.59076939999795,391.042708099998,c,1,0.43518519999997807,None,,,,,072424,001,2024-10-16_21h54.09.618,motorsquence,2024.2.1post4,60.01979452873557,2024-10-16 21h54.16.872018 +0530,
-150,z,159,3,39,z,1,0.2473623999976553,None,39,3,159,3,,,,,391.05757319999975,,391.0433329999978,391.05757319999975,392.05745959999695,392.05745959999695,392.05745959999695,392.05745959999695,392.05745959999695,393.05745129999923,393.05745129999923,393.30886459999965,z,1,0.2473623999976553,None,,,,,072424,001,2024-10-16_21h54.09.618,motorsquence,2024.2.1post4,60.01979452873557,2024-10-16 21h54.16.872018 +0530,
-50,x,160,0,40,x,1,0.2427348000019265,None,40,0,160,0,,,,,393.3242524999987,,393.3093673000003,393.3242524999987,394.3242657999981,394.3242657999981,394.3242657999981,394.3242657999981,394.3242657999981,395.3243315999971,395.3243315999971,395.57613539999875,x,1,0.2427348000019265,None,,,,,072424,001,2024-10-16_21h54.09.618,motorsquence,2024.2.1post4,60.01979452873557,2024-10-16 21h54.16.872018 +0530,
150,v,161,1,40,v,1,0.30981810000230325,None,40,1,161,1,,,,,395.591000299999,,395.5768253999995,395.591000299999,396.59126139999717,396.59126139999717,396.59126139999717,396.59126139999717,396.59126139999717,397.5912138999993,397.5912138999993,397.9095462999976,v,1,0.30981810000230325,None,,,,,072424,001,2024-10-16_21h54.09.618,motorsquence,2024.2.1post4,60.01979452873557,2024-10-16 21h54.16.872018 +0530,
50,c,162,2,40,c,1,0.2979162000010547,None,40,2,162,2,,,,,397.92436459999954,,397.91021049999836,397.92436459999954,398.9243967000002,398.9243967000002,398.9243967000002,398.9243967000002,398.9243967000002,399.9244465999982,399.9244465999982,400.22757659999843,c,1,0.2979162000010547,None,,,,,072424,001,2024-10-16_21h54.09.618,motorsquence,2024.2.1post4,60.01979452873557,2024-10-16 21h54.16.872018 +0530,
-150,z,163,3,40,z,1,0.25341649999973015,None,40,3,163,3,,,,,400.2412914999986,,400.2282766999997,400.2412914999986,401.2411704999977,401.2411704999977,401.2411704999977,401.2411704999977,401.2411704999977,402.2412156999999,402.2412156999999,402.510059799999,z,1,0.25341649999973015,None,,,,,072424,001,2024-10-16_21h54.09.618,motorsquence,2024.2.1post4,60.01979452873557,2024-10-16 21h54.16.872018 +0530,
-50,x,164,0,41,x,1,0.1556087999997544,None,41,0,164,0,,,,,402.5247404999973,,402.5107633999978,402.5247404999973,403.52482309999687,403.52482309999687,403.52482309999687,403.52482309999687,403.52482309999687,404.5248513999977,404.5248513999977,404.6930113999988,x,1,0.1556087999997544,None,,,,,072424,001,2024-10-16_21h54.09.618,motorsquence,2024.2.1post4,60.01979452873557,2024-10-16 21h54.16.872018 +0530,
150,v,165,1,41,v,1,0.2843341000007058,None,41,1,165,1,,,,,404.7079864999978,,404.69364629999836,404.7079864999978,405.7080505999984,405.7080505999984,405.7080505999984,405.7080505999984,405.7080505999984,406.70824159999756,406.70824159999756,407.01004589999866,v,1,0.2843341000007058,None,,,,,072424,001,2024-10-16_21h54.09.618,motorsquence,2024.2.1post4,60.01979452873557,2024-10-16 21h54.16.872018 +0530,
50,c,166,2,41,c,1,0.6283067000003939,None,41,2,166,2,,,,,407.02479219999805,,407.01069859999916,407.02479219999805,408.0250156000002,408.0250156000002,408.0250156000002,408.0250156000002,408.0250156000002,409.02503579999757,409.02503579999757,409.660189299997,c,1,0.6283067000003939,None,,,,,072424,001,2024-10-16_21h54.09.618,motorsquence,2024.2.1post4,60.01979452873557,2024-10-16 21h54.16.872018 +0530,
-150,z,167,3,41,z,1,0.2931626999998116,None,41,3,167,3,,,,,409.67502749999767,,409.6608997999974,409.67502749999767,410.67495269999927,410.67495269999927,410.67495269999927,410.67495269999927,410.67495269999927,411.6749487999987,411.6749487999987,411.9767276999992,z,1,0.2931626999998116,None,,,,,072424,001,2024-10-16_21h54.09.618,motorsquence,2024.2.1post4,60.01979452873557,2024-10-16 21h54.16.872018 +0530,
-50,x,168,0,42,x,1,0.20968520000315038,None,42,0,168,0,,,,,411.99165159999757,,411.9774260999984,411.99165159999757,412.99166689999765,412.99166689999765,412.99166689999765,412.99166689999765,412.99166689999765,413.9917695999975,413.9917695999975,414.2107299999989,x,1,0.20968520000315038,None,,,,,072424,001,2024-10-16_21h54.09.618,motorsquence,2024.2.1post4,60.01979452873557,2024-10-16 21h54.16.872018 +0530,
150,v,169,1,42,v,1,0.3406362999994599,None,42,1,169,1,,,,,414.2252673999974,,414.2114012999991,414.2252673999974,415.2252867999996,415.2252867999996,415.2252867999996,415.2252867999996,415.2252867999996,416.22537819999707,416.22537819999707,416.57699859999775,v,1,0.3406362999994599,None,,,,,072424,001,2024-10-16_21h54.09.618,motorsquence,2024.2.1post4,60.01979452873557,2024-10-16 21h54.16.872018 +0530,
50,c,170,2,42,c,1,0.3058917999987898,None,42,2,170,2,,,,,416.5919619999986,,416.57765219999783,416.5919619999986,417.59185929999876,417.59185929999876,417.59185929999876,417.59185929999876,417.59185929999876,418.591927999998,418.591927999998,418.9101903999981,c,1,0.3058917999987898,None,,,,,072424,001,2024-10-16_21h54.09.618,motorsquence,2024.2.1post4,60.01979452873557,2024-10-16 21h54.16.872018 +0530,
-150,z,171,3,42,z,1,0.27141539999865927,None,42,3,171,3,,,,,418.9253028999992,,418.91084259999843,418.9253028999992,419.9254172000001,419.9254172000001,419.9254172000001,419.9254172000001,419.9254172000001,420.9254743999991,420.9254743999991,421.21056150000004,z,1,0.27141539999865927,None,,,,,072424,001,2024-10-16_21h54.09.618,motorsquence,2024.2.1post4,60.01979452873557,2024-10-16 21h54.16.872018 +0530,
-50,x,172,0,43,x,1,0.6075273000024026,None,43,0,172,0,,,,,421.22538449999774,,421.21119980000003,421.22538449999774,422.22547549999945,422.22547549999945,422.22547549999945,422.22547549999945,422.22547549999945,423.22546729999885,423.22546729999885,423.8440977999999,x,1,0.6075273000024026,None,,,,,072424,001,2024-10-16_21h54.09.618,motorsquence,2024.2.1post4,60.01979452873557,2024-10-16 21h54.16.872018 +0530,
150,v,173,1,43,v,1,0.8241861000024073,None,43,1,173,1,,,,,423.85888989999876,,423.8447901999971,423.85888989999876,424.85889399999724,424.85889399999724,424.85889399999724,424.85889399999724,424.85889399999724,425.8588340999995,425.8588340999995,426.6934562999995,v,1,0.8241861000024073,None,,,,,072424,001,2024-10-16_21h54.09.618,motorsquence,2024.2.1post4,60.01979452873557,2024-10-16 21h54.16.872018 +0530,
50,c,174,2,43,c,1,0.3206544999993639,None,43,2,174,2,,,,,426.7088989999975,,426.69386979999763,426.7088989999975,427.7090257999989,427.7090257999989,427.7090257999989,427.7090257999989,427.7090257999989,428.69235859999753,428.69235859999753,429.02762520000033,c,1,0.3206544999993639,None,,,,,072424,001,2024-10-16_21h54.09.618,motorsquence,2024.2.1post4,60.01979452873557,2024-10-16 21h54.16.872018 +0530,
-150,z,175,3,43,z,1,0.3611190000010538,None,43,3,175,3,,,,,429.04233159999785,,429.0279933999991,429.04233159999785,430.0424873999982,430.0424873999982,430.0424873999982,430.0424873999982,430.0424873999982,431.04247679999753,431.04247679999753,431.4109406999996,z,1,0.3611190000010538,None,,,,,072424,001,2024-10-16_21h54.09.618,motorsquence,2024.2.1post4,60.01979452873557,2024-10-16 21h54.16.872018 +0530,
-50,x,176,0,44,x,1,0.29838309999831836,None,44,0,176,0,,,,,431.42583319999903,,431.41162879999683,431.42583319999903,432.4260768999993,432.4260768999993,432.4260768999993,432.4260768999993,432.4260768999993,433.42595359999905,433.42595359999905,433.7279338999979,x,1,0.29838309999831836,None,,,,,072424,001,2024-10-16_21h54.09.618,motorsquence,2024.2.1post4,60.01979452873557,2024-10-16 21h54.16.872018 +0530,
150,v,177,1,44,v,1,0.27841459999763174,None,44,1,177,1,,,,,433.7426373999988,,433.7285770999988,433.7426373999988,434.74278539999796,434.74278539999796,434.74278539999796,434.74278539999796,434.74278539999796,435.7427938000001,435.7427938000001,436.0283731999989,v,1,0.27841459999763174,None,,,,,072424,001,2024-10-16_21h54.09.618,motorsquence,2024.2.1post4,60.01979452873557,2024-10-16 21h54.16.872018 +0530,
50,c,178,2,44,c,1,0.31728990000192425,None,44,2,178,2,,,,,436.0427294999972,,436.02934769999774,436.0427294999972,437.04285979999986,437.04285979999986,437.04285979999986,437.04285979999986,437.04285979999986,438.0429019999974,438.0429019999974,438.37745639999775,c,1,0.31728990000192425,None,,,,,072424,001,2024-10-16_21h54.09.618,motorsquence,2024.2.1post4,60.01979452873557,2024-10-16 21h54.16.872018 +0530,
-150,z,179,3,44,z,1,0.45023070000024745,None,44,3,179,3,,,,,438.39278269999704,,438.37809469999775,438.39278269999704,439.3929785,439.3929785,439.3929785,439.3929785,439.3929785,440.39287369999874,440.39287369999874,440.8451327999974,z,1,0.45023070000024745,None,,,,,072424,001,2024-10-16_21h54.09.618,motorsquence,2024.2.1post4,60.01979452873557,2024-10-16 21h54.16.872018 +0530,
-50,x,180,0,45,x,1,0.2836725999986811,None,45,0,180,0,,,,,440.8595400999984,,440.8457914999999,440.8595400999984,441.8595193999972,441.8595193999972,441.8595193999972,441.8595193999972,441.8595193999972,442.8598017000004,442.8598017000004,443.1458055999974,x,1,0.2836725999986811,None,,,,,072424,001,2024-10-16_21h54.09.618,motorsquence,2024.2.1post4,60.01979452873557,2024-10-16 21h54.16.872018 +0530,
150,v,181,1,45,v,1,0.28826720000142814,None,45,1,181,1,,,,,443.1595594999999,,443.1464570999997,443.1595594999999,444.15973139999915,444.15973139999915,444.15973139999915,444.15973139999915,444.15973139999915,445.15985349999755,445.15985349999755,445.4613761999972,v,1,0.28826720000142814,None,,,,,072424,001,2024-10-16_21h54.09.618,motorsquence,2024.2.1post4,60.01979452873557,2024-10-16 21h54.16.872018 +0530,
50,c,182,2,45,c,1,0.26769960000092397,None,45,2,182,2,,,,,445.47643590000007,,445.4620200999998,445.47643590000007,446.4765047999972,446.4765047999972,446.4765047999972,446.4765047999972,446.4765047999972,447.4766051999977,447.4766051999977,447.7615786999995,c,1,0.26769960000092397,None,,,,,072424,001,2024-10-16_21h54.09.618,motorsquence,2024.2.1post4,60.01979452873557,2024-10-16 21h54.16.872018 +0530,
-150,z,183,3,45,z,1,0.27629670000169426,None,45,3,183,3,,,,,447.77656099999876,,447.7623320999992,447.77656099999876,448.77649139999994,448.77649139999994,448.77649139999994,448.77649139999994,448.77649139999994,449.7766215999982,449.7766215999982,450.0621307000001,z,1,0.27629670000169426,None,,,,,072424,001,2024-10-16_21h54.09.618,motorsquence,2024.2.1post4,60.01979452873557,2024-10-16 21h54.16.872018 +0530,
-50,x,184,0,46,x,1,0.13945070000045234,None,46,0,184,0,,,,,450.07678730000043,,450.06299880000006,450.07678730000043,451.07686869999816,451.07686869999816,451.07686869999816,451.07686869999816,451.07686869999816,452.0769094999996,452.0769094999996,452.2284680999983,x,1,0.13945070000045234,None,,,,,072424,001,2024-10-16_21h54.09.618,motorsquence,2024.2.1post4,60.01979452873557,2024-10-16 21h54.16.872018 +0530,
150,v,185,1,46,v,1,0.24634969999897294,None,46,1,185,1,,,,,452.24331879999954,,452.2291026999992,452.24331879999954,453.24353829999745,453.24353829999745,453.24353829999745,453.24353829999745,453.24353829999745,454.2436870999991,454.2436870999991,454.4950804,v,1,0.24634969999897294,None,,,,,072424,001,2024-10-16_21h54.09.618,motorsquence,2024.2.1post4,60.01979452873557,2024-10-16 21h54.16.872018 +0530,
50,c,186,2,46,c,1,0.5187702000002901,None,46,2,186,2,,,,,454.5101130999974,,454.4957092000004,454.5101130999974,455.5101833999979,455.5101833999979,455.5101833999979,455.5101833999979,455.5101833999979,456.5101837000002,456.5101837000002,457.0452632999986,c,1,0.5187702000002901,None,,,,,072424,001,2024-10-16_21h54.09.618,motorsquence,2024.2.1post4,60.01979452873557,2024-10-16 21h54.16.872018 +0530,
-150,z,187,3,46,z,1,0.3988260999976774,None,46,3,187,3,,,,,457.06033000000025,,457.0459093999998,457.06033000000025,458.06030499999906,458.06030499999906,458.06030499999906,458.06030499999906,458.06030499999906,459.0603993000004,459.0603993000004,459.46179069999926,z,1,0.3988260999976774,None,,,,,072424,001,2024-10-16_21h54.09.618,motorsquence,2024.2.1post4,60.01979452873557,2024-10-16 21h54.16.872018 +0530,
-50,x,188,0,47,x,1,0.24599859999943874,None,47,0,188,0,,,,,459.47689999999784,,459.4623023999993,459.47689999999784,460.47707289999744,460.47707289999744,460.47707289999744,460.47707289999744,460.47707289999744,461.47706929999913,461.47706929999913,461.7285912999978,x,1,0.24599859999943874,None,,,,,072424,001,2024-10-16_21h54.09.618,motorsquence,2024.2.1post4,60.01979452873557,2024-10-16 21h54.16.872018 +0530,
150,v,189,1,47,v,1,0.4587950999994064,None,47,1,189,1,,,,,461.74368289999984,,461.7290412000002,461.74368289999984,462.7441282999971,462.7441282999971,462.7441282999971,462.7441282999971,462.7441282999971,463.7438187999978,463.7438187999978,464.2122218000004,v,1,0.4587950999994064,None,,,,,072424,001,2024-10-16_21h54.09.618,motorsquence,2024.2.1post4,60.01979452873557,2024-10-16 21h54.16.872018 +0530,
50,c,190,2,47,c,1,0.46036889999959385,None,47,2,190,2,,,,,464.227202099999,,464.21287200000006,464.227202099999,465.22729489999983,465.22729489999983,465.22729489999983,465.22729489999983,465.22729489999983,466.22724670000025,466.22724670000025,466.69642029999886,c,1,0.46036889999959385,None,,,,,072424,001,2024-10-16_21h54.09.618,motorsquence,2024.2.1post4,60.01979452873557,2024-10-16 21h54.16.872018 +0530,
-150,z,191,3,47,z,1,0.2773769000013999,None,47,3,191,3,,,,,466.7106754999986,,466.6972844999982,466.7106754999986,467.71084869999686,467.71084869999686,467.71084869999686,467.71084869999686,467.71084869999686,468.71094009999797,468.71094009999797,468.9965188999995,z,1,0.2773769000013999,None,,,,,072424,001,2024-10-16_21h54.09.618,motorsquence,2024.2.1post4,60.01979452873557,2024-10-16 21h54.16.872018 +0530,
-50,x,192,0,48,x,1,0.25168610000037006,None,48,0,192,0,,,,,469.0108762999989,,468.99715789999755,469.0108762999989,470.0108991999987,470.0108991999987,470.0108991999987,470.0108991999987,470.0108991999987,471.01086829999986,471.01086829999986,471.2792972999996,x,1,0.25168610000037006,None,,,,,072424,001,2024-10-16_21h54.09.618,motorsquence,2024.2.1post4,60.01979452873557,2024-10-16 21h54.16.872018 +0530,
150,v,193,1,48,v,1,0.43251410000084434,None,48,1,193,1,,,,,471.29429789999995,,471.2800028999991,471.29429789999995,472.2943138999981,472.2943138999981,472.2943138999981,472.2943138999981,472.2943138999981,473.2942946999974,473.2942946999974,473.7299162999989,v,1,0.43251410000084434,None,,,,,072424,001,2024-10-16_21h54.09.618,motorsquence,2024.2.1post4,60.01979452873557,2024-10-16 21h54.16.872018 +0530,
50,c,194,2,48,c,1,0.4721838999976171,None,48,2,194,2,,,,,473.7443773999985,,473.73055629999726,473.7443773999985,474.7443581999978,474.7443581999978,474.7443581999978,474.7443581999978,474.7443581999978,475.7444163,475.7444163,476.22990740000023,c,1,0.4721838999976171,None,,,,,072424,001,2024-10-16_21h54.09.618,motorsquence,2024.2.1post4,60.01979452873557,2024-10-16 21h54.16.872018 +0530,
-150,z,195,3,48,z,1,0.433377900000778,None,48,3,195,3,,,,,476.2445869999974,,476.2307268000004,476.2445869999974,477.24471859999903,477.24471859999903,477.24471859999903,477.24471859999903,477.24471859999903,478.2444985999973,478.2444985999973,478.6799267999995,z,1,0.433377900000778,None,,,,,072424,001,2024-10-16_21h54.09.618,motorsquence,2024.2.1post4,60.01979452873557,2024-10-16 21h54.16.872018 +0530,
-50,x,196,0,49,x,1,0.28535700000065845,None,49,0,196,0,,,,,478.69454079999923,,478.68058299999757,478.69454079999923,479.6945022999971,479.6945022999971,479.6945022999971,479.6945022999971,479.6945022999971,480.6945373999988,480.6945373999988,480.9964407999978,x,1,0.28535700000065845,None,,,,,072424,001,2024-10-16_21h54.09.618,motorsquence,2024.2.1post4,60.01979452873557,2024-10-16 21h54.16.872018 +0530,
150,v,197,1,49,v,1,0.38247060000139754,None,49,1,197,1,,,,,481.01129930000025,,480.9970899999971,481.01129930000025,482.0112986999993,482.0112986999993,482.0112986999993,482.0112986999993,482.0112986999993,483.01142659999823,483.01142659999823,483.3969911999993,v,1,0.38247060000139754,None,,,,,072424,001,2024-10-16_21h54.09.618,motorsquence,2024.2.1post4,60.01979452873557,2024-10-16 21h54.16.872018 +0530,
50,c,198,2,49,c,1,0.375577599999815,None,49,2,198,2,,,,,483.41140209999867,,483.39761799999906,483.41140209999867,484.41136410000036,484.41136410000036,484.41136410000036,484.41136410000036,484.41136410000036,485.4115434999985,485.4115434999985,485.79676929999914,c,1,0.375577599999815,None,,,,,072424,001,2024-10-16_21h54.09.618,motorsquence,2024.2.1post4,60.01979452873557,2024-10-16 21h54.16.872018 +0530,
-150,z,199,3,49,z,1,0.5741817999987688,None,49,3,199,3,,,,,485.8115586999993,,485.7974684999972,485.8115586999993,486.81165669999973,486.81165669999973,486.81165669999973,486.81165669999973,486.81165669999973,487.8117134999993,487.8117134999993,488.39660789999834,z,1,0.5741817999987688,None,,,,,072424,001,2024-10-16_21h54.09.618,motorsquence,2024.2.1post4,60.01979452873557,2024-10-16 21h54.16.872018 +0530,
50,c,0,0,0,c,1,0.5646527999997488,None,,,,,0,0,0,2,488.4282099999982,,488.40819589999955,488.4282099999982,489.4116870999969,489.4116870999969,489.4116870999969,489.4116870999969,489.4282467999983,490.41173439999693,490.41173439999693,490.98055810000005,,,,,c,1,0.5646527999997488,None,072424,001,2024-10-16_21h54.09.618,motorsquence,2024.2.1post4,60.01979452873557,2024-10-16 21h54.16.872018 +0530,
-150,z,1,1,0,z,1,0.7785609000020486,None,,,,,0,1,1,3,490.99514069999714,,490.98120949999793,490.99514069999714,491.995196099997,491.995196099997,491.995196099997,491.995196099997,491.995196099997,492.99528609999834,492.99528609999834,493.7799236999999,,,,,z,1,0.7785609000020486,None,072424,001,2024-10-16_21h54.09.618,motorsquence,2024.2.1post4,60.01979452873557,2024-10-16 21h54.16.872018 +0530,
150,v,2,2,0,v,1,0.6952630999985558,None,,,,,0,2,2,1,493.795074499998,,493.7804827999971,493.795074499998,494.79517209999904,494.79517209999904,494.79517209999904,494.79517209999904,494.79517209999904,495.7952368999977,495.7952368999977,496.4972095999983,,,,,v,1,0.6952630999985558,None,072424,001,2024-10-16_21h54.09.618,motorsquence,2024.2.1post4,60.01979452873557,2024-10-16 21h54.16.872018 +0530,
-50,x,3,3,0,x,1,0.7542867000011029,None,,,,,0,3,3,0,496.5119713999993,,496.497915699998,496.5119713999993,497.51197129999855,497.51197129999855,497.51197129999855,497.51197129999855,497.51197129999855,498.51200249999965,498.51200249999965,499.28098669999963,,,,,x,1,0.7542867000011029,None,072424,001,2024-10-16_21h54.09.618,motorsquence,2024.2.1post4,60.01979452873557,2024-10-16 21h54.16.872018 +0530,
50,c,4,4,1,c,1,0.6680952999995498,None,,,,,1,4,4,2,499.2954522999971,,499.28203399999984,499.2954522999971,500.29567979999774,500.29567979999774,500.29567979999774,500.29567979999774,500.29567979999774,501.295579499998,501.295579499998,501.98069549999855,,,,,c,1,0.6680952999995498,None,072424,001,2024-10-16_21h54.09.618,motorsquence,2024.2.1post4,60.01979452873557,2024-10-16 21h54.16.872018 +0530,
150,v,5,5,1,v,1,0.9618085000001884,None,,,,,1,5,5,1,501.9955727999986,,501.98134949999803,501.9955727999986,502.99548460000005,502.99548460000005,502.99548460000005,502.99548460000005,502.99548460000005,503.99573210000017,503.99573210000017,504.96428000000014,,,,,v,1,0.9618085000001884,None,072424,001,2024-10-16_21h54.09.618,motorsquence,2024.2.1post4,60.01979452873557,2024-10-16 21h54.16.872018 +0530,
-50,x,6,6,1,x,1,0.863322799999878,None,,,,,1,6,6,0,504.97889289999875,,504.9649632999972,504.97889289999875,505.9790585999981,505.9790585999981,505.9790585999981,505.9790585999981,505.9790585999981,506.9791946999976,506.9791946999976,507.8480028999984,,,,,x,1,0.863322799999878,None,072424,001,2024-10-16_21h54.09.618,motorsquence,2024.2.1post4,60.01979452873557,2024-10-16 21h54.16.872018 +0530,
-150,z,7,7,1,z,1,0.501132499997766,None,,,,,1,7,7,3,507.8626082999981,,507.8486568999979,507.8626082999981,508.86266629999955,508.86266629999955,508.86266629999955,508.86266629999955,508.86266629999955,509.8627252999977,509.8627252999977,510.3809465999984,,,,,z,1,0.501132499997766,None,072424,001,2024-10-16_21h54.09.618,motorsquence,2024.2.1post4,60.01979452873557,2024-10-16 21h54.16.872018 +0530,
-150,z,8,8,2,z,1,0.5457199999982549,None,,,,,2,8,8,3,510.3958161999981,,510.38160629999766,510.3958161999981,511.3958735999986,511.3958735999986,511.3958735999986,511.3958735999986,511.3958735999986,512.3959704999979,512.3959704999979,512.9481341999999,,,,,z,1,0.5457199999982549,None,072424,001,2024-10-16_21h54.09.618,motorsquence,2024.2.1post4,60.01979452873557,2024-10-16 21h54.16.872018 +0530,
50,c,9,9,2,c,1,0.5828982999992149,None,,,,,2,9,9,2,512.9633295999993,,512.9488466000003,512.9633295999993,513.9627363999971,513.9627363999971,513.9627363999971,513.9627363999971,513.9627363999971,514.9628510999974,514.9628510999974,515.5487206999969,,,,,c,1,0.5828982999992149,None,072424,001,2024-10-16_21h54.09.618,motorsquence,2024.2.1post4,60.01979452873557,2024-10-16 21h54.16.872018 +0530,
-50,x,10,10,2,x,1,0.638309300000401,None,,,,,2,10,10,0,515.5628160999986,,515.5494504999988,515.5628160999986,516.5628242999992,516.5628242999992,516.5628242999992,516.5628242999992,516.5628242999992,517.5627633999975,517.5627633999975,518.2147957999987,,,,,x,1,0.638309300000401,None,072424,001,2024-10-16_21h54.09.618,motorsquence,2024.2.1post4,60.01979452873557,2024-10-16 21h54.16.872018 +0530,
50,c,11,11,3,c,1,0.6556706000010308,None,,,,,3,11,11,2,518.2297022999992,,518.2155392999994,518.2297022999992,519.2297852999982,519.2297852999982,519.2297852999982,519.2297852999982,519.2297852999982,520.2298545999984,520.2298545999984,520.8981362999984,,,,,c,1,0.6556706000010308,None,072424,001,2024-10-16_21h54.09.618,motorsquence,2024.2.1post4,60.01979452873557,2024-10-16 21h54.16.872018 +0530,
50,c,12,12,4,c,1,0.6003496999983327,None,,,,,4,12,12,2,520.9130033999973,,520.8988234999997,520.9130033999973,521.9129795999979,521.9129795999979,521.9129795999979,521.9129795999979,521.9129795999979,522.9130694999985,522.9130694999985,523.515224499999,,,,,c,1,0.6003496999983327,None,072424,001,2024-10-16_21h54.09.618,motorsquence,2024.2.1post4,60.01979452873557,2024-10-16 21h54.16.872018 +0530,
50,c,13,13,5,c,1,0.9551331000002392,None,,,,,5,13,13,2,523.5297360999975,,523.5158869999977,523.5297360999975,524.5298425999972,524.5298425999972,524.5298425999972,524.5298425999972,524.5298425999972,525.5299591999974,525.5299591999974,526.498595699999,,,,,c,1,0.9551331000002392,None,072424,001,2024-10-16_21h54.09.618,motorsquence,2024.2.1post4,60.01979452873557,2024-10-16 21h54.16.872018 +0530,
-50,x,14,14,3,x,1,0.6146780000017316,None,,,,,3,14,14,0,526.5133652000004,,526.4993089999989,526.5133652000004,527.5132054999995,527.5132054999995,527.5132054999995,527.5132054999995,527.5132054999995,528.5132637999995,528.5132637999995,529.1313248999977,,,,,x,1,0.6146780000017316,None,072424,001,2024-10-16_21h54.09.618,motorsquence,2024.2.1post4,60.01979452873557,2024-10-16 21h54.16.872018 +0530,
150,v,15,15,2,v,1,0.7099071000011463,None,,,,,2,15,15,1,529.1465771000003,,529.1317275999972,529.1465771000003,530.1467470999996,530.1467470999996,530.1467470999996,530.1467470999996,530.1467470999996,531.1466086999972,531.1466086999972,531.8653244999987,,,,,v,1,0.7099071000011463,None,072424,001,2024-10-16_21h54.09.618,motorsquence,2024.2.1post4,60.01979452873557,2024-10-16 21h54.16.872018 +0530,
-50,x,16,16,4,x,1,0.5807007000003068,None,,,,,4,16,16,0,531.8800338000001,,531.865847699999,531.8800338000001,532.8802445999972,532.8802445999972,532.8802445999972,532.8802445999972,532.8802445999972,533.8804180999978,533.8804180999978,534.4655160000002,,,,,x,1,0.5807007000003068,None,072424,001,2024-10-16_21h54.09.618,motorsquence,2024.2.1post4,60.01979452873557,2024-10-16 21h54.16.872018 +0530,
-150,z,17,17,3,z,1,0.3915091000017128,None,,,,,3,17,17,3,534.4802506999986,,534.4662260999976,534.4802506999986,535.4804113999999,535.4804113999999,535.4804113999999,535.4804113999999,535.4804113999999,536.4804047999969,536.4804047999969,536.8828721999998,,,,,z,1,0.3915091000017128,None,072424,001,2024-10-16_21h54.09.618,motorsquence,2024.2.1post4,60.01979452873557,2024-10-16 21h54.16.872018 +0530,
150,v,18,18,3,v,1,0.7171801000004052,None,,,,,3,18,18,1,536.8970496999973,,536.8837176999987,536.8970496999973,537.8972548999991,537.8972548999991,537.8972548999991,537.8972548999991,537.8972548999991,538.8972644999994,538.8972644999994,539.6319008999999,,,,,v,1,0.7171801000004052,None,072424,001,2024-10-16_21h54.09.618,motorsquence,2024.2.1post4,60.01979452873557,2024-10-16 21h54.16.872018 +0530,
-150,z,19,19,4,z,1,0.48020899999755784,None,,,,,4,19,19,3,539.6471280999976,,539.6325734999991,539.6471280999976,540.6471466999974,540.6471466999974,540.6471466999974,540.6471466999974,540.6471466999974,541.6471645999991,541.6471645999991,542.1323981999994,,,,,z,1,0.48020899999755784,None,072424,001,2024-10-16_21h54.09.618,motorsquence,2024.2.1post4,60.01979452873557,2024-10-16 21h54.16.872018 +0530,
50,c,20,20,6,c,1,0.8400309999997262,None,,,,,6,20,20,2,542.1471512999997,,542.133193499998,542.1471512999997,543.1471916999981,543.1471916999981,543.1471916999981,543.1471916999981,543.1471916999981,544.1472407999972,544.1472407999972,544.9991425999979,,,,,c,1,0.8400309999997262,None,072424,001,2024-10-16_21h54.09.618,motorsquence,2024.2.1post4,60.01979452873557,2024-10-16 21h54.16.872018 +0530,
-150,z,21,21,5,z,1,0.7783883999982208,None,,,,,5,21,21,3,545.0139445999994,,544.9998125999991,545.0139445999994,546.0140538999985,546.0140538999985,546.0140538999985,546.0140538999985,546.0140538999985,547.0141221999984,547.0141221999984,547.7993060999979,,,,,z,1,0.7783883999982208,None,072424,001,2024-10-16_21h54.09.618,motorsquence,2024.2.1post4,60.01979452873557,2024-10-16 21h54.16.872018 +0530,
150,v,22,22,4,v,1,0.8423231000015221,None,,,,,4,22,22,1,547.8140896000004,,547.7999591999978,547.8140896000004,548.8142073999988,548.8142073999988,548.8142073999988,548.8142073999988,548.8142073999988,549.8143235999996,549.8143235999996,550.6667715999974,,,,,v,1,0.8423231000015221,None,072424,001,2024-10-16_21h54.09.618,motorsquence,2024.2.1post4,60.01979452873557,2024-10-16 21h54.16.872018 +0530,
50,c,23,23,7,c,1,1.0150472000023,None,,,,,7,23,23,2,550.6810279999991,,550.6674347999979,550.6810279999991,551.6811024999988,551.6811024999988,551.6811024999988,551.6811024999988,551.6811024999988,552.6811762999969,552.6811762999969,553.6999894999972,,,,,c,1,1.0150472000023,None,072424,001,2024-10-16_21h54.09.618,motorsquence,2024.2.1post4,60.01979452873557,2024-10-16 21h54.16.872018 +0530,
-50,x,24,24,5,x,1,1.8153956000023754,None,,,,,5,24,24,0,553.7145563999984,,553.7006347999995,553.7145563999984,554.7145633999971,554.7145633999971,554.7145633999971,554.7145633999971,554.7145633999971,555.7145802999985,555.7145802999985,557.5329843999971,,,,,x,1,1.8153956000023754,None,072424,001,2024-10-16_21h54.09.618,motorsquence,2024.2.1post4,60.01979452873557,2024-10-16 21h54.16.872018 +0530,
-150,z,25,25,6,z,1,0.7065505999999004,None,,,,,6,25,25,3,557.547795399998,,557.5336279000003,557.547795399998,558.5479314999975,558.5479314999975,558.5479314999975,558.5479314999975,558.5479314999975,559.5479591999974,559.5479591999974,560.2666519999984,,,,,z,1,0.7065505999999004,None,072424,001,2024-10-16_21h54.09.618,motorsquence,2024.2.1post4,60.01979452873557,2024-10-16 21h54.16.872018 +0530,
150,v,26,26,5,v,1,0.6448138999985531,None,,,,,5,26,26,1,560.2813661,,560.2672935999981,560.2813661,561.2814102999982,561.2814102999982,561.2814102999982,561.2814102999982,561.2814102999982,562.2814480999987,562.2814480999987,562.9335732999971,,,,,v,1,0.6448138999985531,None,072424,001,2024-10-16_21h54.09.618,motorsquence,2024.2.1post4,60.01979452873557,2024-10-16 21h54.16.872018 +0530,
150,v,27,27,6,v,1,0.5921637999999803,None,,,,,6,27,27,1,562.9481311999989,,562.9342394999985,562.9481311999989,563.9481548999975,563.9481548999975,563.9481548999975,563.9481548999975,563.9481548999975,564.9483140999982,564.9483140999982,565.5498466999998,,,,,v,1,0.5921637999999803,None,072424,001,2024-10-16_21h54.09.618,motorsquence,2024.2.1post4,60.01979452873557,2024-10-16 21h54.16.872018 +0530,
-150,z,28,28,7,z,1,0.42817769999965094,None,,,,,7,28,28,3,565.5650731999995,,565.550507099997,565.5650731999995,566.5649510999974,566.5649510999974,566.5649510999974,566.5649510999974,566.5649510999974,567.5649497999984,567.5649497999984,567.9999624999982,,,,,z,1,0.42817769999965094,None,072424,001,2024-10-16_21h54.09.618,motorsquence,2024.2.1post4,60.01979452873557,2024-10-16 21h54.16.872018 +0530,
-150,z,29,29,8,z,1,0.5693456999979389,None,,,,,8,29,29,3,568.0149132999977,,568.0006255999979,568.0149132999977,569.0151329,569.0151329,569.0151329,569.0151329,569.0151329,570.0150439999998,570.0150439999998,570.6004023999994,,,,,z,1,0.5693456999979389,None,072424,001,2024-10-16_21h54.09.618,motorsquence,2024.2.1post4,60.01979452873557,2024-10-16 21h54.16.872018 +0530,
-50,x,30,30,6,x,1,0.6521681000012904,None,,,,,6,30,30,0,570.6152077999977,,570.6010993999989,570.6152077999977,571.5985690999987,571.5985690999987,571.5985690999987,571.5985690999987,571.6152497999974,572.6154102999972,572.6154102999972,573.283564399997,,,,,x,1,0.6521681000012904,None,072424,001,2024-10-16_21h54.09.618,motorsquence,2024.2.1post4,60.01979452873557,2024-10-16 21h54.16.872018 +0530,
50,c,31,31,8,c,1,0.26731330000257003,None,,,,,8,31,31,2,573.298585499997,,573.2842280999976,573.298585499997,574.2985545999982,574.2985545999982,574.2985545999982,574.2985545999982,574.2985545999982,575.2987446999978,575.2987446999978,575.5834794000002,,,,,c,1,0.26731330000257003,None,072424,001,2024-10-16_21h54.09.618,motorsquence,2024.2.1post4,60.01979452873557,2024-10-16 21h54.16.872018 +0530,
150,v,32,32,7,v,1,0.3904662000022654,None,,,,,7,32,32,1,575.5985922999971,,575.5841621999971,575.5985922999971,576.5986866999992,576.5986866999992,576.5986866999992,576.5986866999992,576.5986866999992,577.5988548999994,577.5988548999994,578.0012700999978,,,,,v,1,0.3904662000022654,None,072424,001,2024-10-16_21h54.09.618,motorsquence,2024.2.1post4,60.01979452873557,2024-10-16 21h54.16.872018 +0530,
50,c,33,33,9,c,1,0.4429285999976855,None,,,,,9,33,33,2,578.0153952000001,,578.0020506999972,578.0153952000001,579.0155685999998,579.0155685999998,579.0155685999998,579.0155685999998,579.0155685999998,580.0156866999969,580.0156866999969,580.4670565999986,,,,,c,1,0.4429285999976855,None,072424,001,2024-10-16_21h54.09.618,motorsquence,2024.2.1post4,60.01979452873557,2024-10-16 21h54.16.872018 +0530,
-50,x,34,34,7,x,1,0.5545531000025221,None,,,,,7,34,34,0,580.4821518999997,,580.4677182999985,580.4821518999997,581.4822858999978,581.4822858999978,581.4822858999978,581.4822858999978,581.4822858999978,582.4832007000005,582.4832007000005,583.0510911999991,,,,,x,1,0.5545531000025221,None,072424,001,2024-10-16_21h54.09.618,motorsquence,2024.2.1post4,60.01979452873557,2024-10-16 21h54.16.872018 +0530,
150,v,35,35,8,v,1,0.5636650000014924,None,,,,,8,35,35,1,583.0679502999992,,583.0517839999993,583.0679502999992,584.0659371999973,584.0659371999973,584.0659371999973,584.0659371999973,584.0824472999993,585.0658120999979,585.0658120999979,585.6345586999996,,,,,v,1,0.5636650000014924,None,072424,001,2024-10-16_21h54.09.618,motorsquence,2024.2.1post4,60.01979452873557,2024-10-16 21h54.16.872018 +0530,
-50,x,36,36,8,x,1,0.42075239999758196,None,,,,,8,36,36,0,585.6491202999969,,585.6352130999985,585.6491202999969,586.6490401999981,586.6490401999981,586.6490401999981,586.6490401999981,586.6490401999981,587.6492367999999,587.6492367999999,588.0834708999973,,,,,x,1,0.42075239999758196,None,072424,001,2024-10-16_21h54.09.618,motorsquence,2024.2.1post4,60.01979452873557,2024-10-16 21h54.16.872018 +0530,
-150,z,37,37,9,z,1,0.6226054999970074,None,,,,,9,37,37,3,588.0990681999974,,588.0838244999977,588.0990681999974,589.0992535999976,589.0992535999976,589.0992535999976,589.0992535999976,589.0992535999976,590.0825411999976,590.0825411999976,590.7177773999974,,,,,z,1,0.6226054999970074,None,072424,001,2024-10-16_21h54.09.618,motorsquence,2024.2.1post4,60.01979452873557,2024-10-16 21h54.16.872018 +0530,
50,c,38,38,10,c,1,1.155330800000229,None,,,,,10,38,38,2,590.7326866000003,,590.7184189999971,590.7326866000003,591.7327779999978,591.7327779999978,591.7327779999978,591.7327779999978,591.7327779999978,592.7327177999978,592.7327177999978,593.9012561999989,,,,,c,1,1.155330800000229,None,072424,001,2024-10-16_21h54.09.618,motorsquence,2024.2.1post4,60.01979452873557,2024-10-16 21h54.16.872018 +0530,
150,v,39,39,9,v,1,0.4080396999997902,None,,,,,9,39,39,1,593.9161272999991,,593.901908099997,593.9161272999991,594.916185099999,594.916185099999,594.916185099999,594.916185099999,594.916185099999,595.9161988999986,595.9161988999986,596.3346587999986,,,,,v,1,0.4080396999997902,None,072424,001,2024-10-16_21h54.09.618,motorsquence,2024.2.1post4,60.01979452873557,2024-10-16 21h54.16.872018 +0530,
-50,x,40,40,9,x,1,0.35393540000222856,None,,,,,9,40,40,0,596.3494654999995,,596.3353145999972,596.3494654999995,597.3495249999978,597.3495249999978,597.3495249999978,597.3495249999978,597.3495249999978,598.3496192999992,598.3496192999992,598.7183803999978,,,,,x,1,0.35393540000222856,None,072424,001,2024-10-16_21h54.09.618,motorsquence,2024.2.1post4,60.01979452873557,2024-10-16 21h54.16.872018 +0530,
-150,z,41,41,10,z,1,0.5073427000024822,None,,,,,10,41,41,3,598.7331424999975,,598.7190391999975,598.7331424999975,599.7332406999994,599.7332406999994,599.7332406999994,599.7332406999994,599.7332406999994,600.7332100999993,600.7332100999993,601.2515091999994,,,,,z,1,0.5073427000024822,None,072424,001,2024-10-16_21h54.09.618,motorsquence,2024.2.1post4,60.01979452873557,2024-10-16 21h54.16.872018 +0530,
-50,x,42,42,10,x,1,0.43935789999886765,None,,,,,10,42,42,0,601.2663757999981,,601.2521884999987,601.2663757999981,602.2664239999976,602.2664239999976,602.2664239999976,602.2664239999976,602.2664239999976,603.266410799999,603.266410799999,603.7182192,,,,,x,1,0.43935789999886765,None,072424,001,2024-10-16_21h54.09.618,motorsquence,2024.2.1post4,60.01979452873557,2024-10-16 21h54.16.872018 +0530,
150,v,43,43,10,v,1,0.6199559000015142,None,,,,,10,43,43,1,603.7332449999994,,603.7188810999978,603.7332449999994,604.7333058999975,604.7333058999975,604.7333058999975,604.7333058999975,604.7333058999975,605.7332623000002,605.7332623000002,606.3682830999969,,,,,v,1,0.6199559000015142,None,072424,001,2024-10-16_21h54.09.618,motorsquence,2024.2.1post4,60.01979452873557,2024-10-16 21h54.16.872018 +0530,
50,c,44,44,11,c,1,0.7390019999984361,None,,,,,11,44,44,2,606.3833381999975,,606.3689531999989,606.3833381999975,607.3833498999993,607.3833498999993,607.3833498999993,607.3833498999993,607.3833498999993,608.3833406999984,608.3833406999984,609.1356126999999,,,,,c,1,0.7390019999984361,None,072424,001,2024-10-16_21h54.09.618,motorsquence,2024.2.1post4,60.01979452873557,2024-10-16 21h54.16.872018 +0530,
