delay,freq,condition,thisN,thisTrialN,thisRepN,key_resp.keys,key_resp.rt,key_resp.duration,textbox.text,button.numClicks,button.timesOn,button.timesOff,trials.thisRepN,trials.thisTrialN,trials.thisN,trials.thisIndex,thisRow.t,notes,trial.started,polygon.started,polygon_2.started,key_resp.started,polygon.stopped,trial.stopped,trials.key_resp.keys,trials.key_resp.rt,trials.key_resp.duration,beep.started,sound_1.started,sound_1.stopped,beep.stopped,response.started,text.started,textbox.started,button.started,response.stopped,trials.textbox.text,trials.button.numClicks,trials.button.timesOn,trials.button.timesOff,participant,session,date,expName,psychopyVersion,frameRate,expStart,
0.4,400,unexp,0,0,0,space,1.7653761000001396,None,100,1,[6.153267400000004],[6.153299699999934],0,0,0,1,0.060637900000074296,,0.04137170000012702,0.060637900000074296,1.0089152999998987,1.0089152999998987,1.0758387999999286,2.7813481000002866,space,1.7653761000001396,None,2.782139500000085,3.1925026666670115,3.563513900000089,3.4935159000001477,3.495815400000083,3.563513900000089,3.563513900000089,3.563513900000089,9.718270500000017,100,1,[6.153267400000004],[6.153299699999934],052167,001,2024-11-13_13h45.43.780,intentional_binding,2024.2.1post4,60.9114299078454,2024-11-13 13h45.53.332322 +0530,
0.4,1000,exp,1,1,0,space,0.7390298999998777,None,888,1,[3.9172653000000537],[3.9172835999997915],0,1,1,4,9.730681000000004,,9.718810100000155,9.730681000000004,10.718451100000038,10.718451100000038,10.734907800000201,11.470482100000027,space,0.7390298999998777,None,11.47171389999994,11.876242666666956,12.198593699999947,12.173072999999931,12.173940399999992,12.198593699999947,12.198593699999947,12.198593699999947,16.11684030000015,888,1,[3.9172653000000537],[3.9172835999997915],052167,001,2024-11-13_13h45.43.780,intentional_binding,2024.2.1post4,60.9114299078454,2024-11-13 13h45.53.332322 +0530,
0.4,1000,exp,2,2,0,space,1.9725311999995938,None,555,1,[3.536959200000183],[3.5369811999999],0,2,2,7,16.134974000000057,,16.11720009999999,16.134974000000057,17.118592900000294,17.118592900000294,17.135145199999897,19.104206400000294,space,1.9725311999995938,None,19.105440199999975,19.51002136666672,19.84964220000029,19.813270399999965,19.814358300000094,19.84964220000029,19.84964220000029,19.84964220000029,23.387953400000242,555,1,[3.536959200000183],[3.5369811999999],052167,001,2024-11-13_13h45.43.780,intentional_binding,2024.2.1post4,60.9114299078454,2024-11-13 13h45.53.332322 +0530,
0.7,400,unexp,3,3,0,space,2.8901629000001776,None,300,1,[4.065312999999605],[4.065349199999673],0,3,3,2,23.402212800000143,,23.388451400000122,23.402212800000143,24.402418500000294,24.402418500000294,24.402418500000294,27.304216700000325,space,2.8901629000001776,None,27.305444699999953,28.010434566666632,28.346007399999962,28.313355700000102,28.314145100000133,28.346007399999962,28.346007399999962,28.346007399999962,32.41306850000001,300,1,[4.065312999999605],[4.065349199999673],052167,001,2024-11-13_13h45.43.780,intentional_binding,2024.2.1post4,60.9114299078454,2024-11-13 13h45.53.332322 +0530,
0.1,1000,exp,4,4,0,space,1.214937799999916,None,22,1,[2.1348683000001074],[2.1348886000000675],0,4,4,6,32.428754200000185,,32.41364199999998,32.428754200000185,33.427276899999924,33.427276899999924,33.44401640000024,34.64609860000019,space,1.214937799999916,None,34.64732559999993,34.760669166666744,35.09437969999999,35.063139500000034,35.0638641999999,35.09437969999999,35.09437969999999,35.09437969999999,37.23050039999998,22,1,[2.1348683000001074],[2.1348886000000675],052167,001,2024-11-13_13h45.43.780,intentional_binding,2024.2.1post4,60.9114299078454,2024-11-13 13h45.53.332322 +0530,
0.7,1000,exp,5,5,0,space,1.2937342000000172,None,900,1,[5.116778899999645],[5.116804499999944],0,5,5,8,37.2440345,,37.23099679999996,37.2440345,38.244103800000175,38.244103800000175,38.244103800000175,39.546257100000275,space,1.2937342000000172,None,39.54756540000017,40.26090036666689,40.59724219999998,40.56348620000017,40.564505499999996,40.59724219999998,40.59724219999998,40.59724219999998,45.715391700000055,900,1,[5.116778899999645],[5.116804499999944],052167,001,2024-11-13_13h45.43.780,intentional_binding,2024.2.1post4,60.9114299078454,2024-11-13 13h45.53.332322 +0530,
0.1,400,unexp,6,6,0,space,0.9991635000001224,None,267,1,[6.655805899999905],[6.655829599999834],0,6,6,0,45.72792840000011,,45.715948300000036,45.72792840000011,46.727808200000254,46.727808200000254,46.727808200000254,47.730202499999905,space,0.9991635000001224,None,47.73139889999993,47.844535566667005,48.181145500000184,48.14307740000004,48.144103800000266,48.181145500000184,48.181145500000184,48.181145500000184,54.838209700000334,267,1,[6.655805899999905],[6.655829599999834],052167,001,2024-11-13_13h45.43.780,intentional_binding,2024.2.1post4,60.9114299078454,2024-11-13 13h45.53.332322 +0530,
0.4,1000,exp,7,7,0,space,4.309754500000054,None,458,1,[4.317699299999731],[4.317719599999691],0,7,7,10,54.853489399999944,,54.83869709999999,54.853489399999944,55.85356700000011,55.85356700000011,55.85356700000011,60.17242840000017,space,4.309754500000054,None,60.173722100000305,60.578467466666794,60.91176620000033,60.873216700000285,60.87414050000007,60.91176620000033,60.91176620000033,60.91176620000033,65.2307080999999,458,1,[4.317699299999731],[4.317719599999691],052167,001,2024-11-13_13h45.43.780,intentional_binding,2024.2.1post4,60.9114299078454,2024-11-13 13h45.53.332322 +0530,
0.1,1000,exp,8,8,0,space,1.3513526000001548,None,55,1,[2.8947653999998693],[2.894785800000136],0,8,8,9,65.24531270000034,,65.2312009000002,65.24531270000034,66.24565970000003,66.24565970000003,66.24565970000003,67.61413240000002,space,1.3513526000001548,None,67.61537570000019,67.72889016666683,68.06893340000033,68.0331999,68.03399900000022,68.06893340000033,68.06893340000033,68.06893340000033,70.96488420000014,55,1,[2.8947653999998693],[2.894785800000136],052167,001,2024-11-13_13h45.43.780,intentional_binding,2024.2.1post4,60.9114299078454,2024-11-13 13h45.53.332322 +0530,
0.7,1000,exp,9,9,0,space,3.9134424999997464,None,667,1,[5.107153700000254],[5.107175300000108],0,9,9,5,70.97893500000009,,70.9653674000001,70.97893500000009,71.97899760000018,71.97899760000018,71.97899760000018,75.89776209999991,space,3.9134424999997464,None,75.89902470000015,76.61253826666668,76.94579350000004,76.9130439999999,76.91377200000034,76.94579350000004,76.94579350000004,76.94579350000004,82.05418009999994,667,1,[5.107153700000254],[5.107175300000108],052167,001,2024-11-13_13h45.43.780,intentional_binding,2024.2.1post4,60.9114299078454,2024-11-13 13h45.53.332322 +0530,
0.7,1000,exp,10,10,0,space,0.6288293000002341,None,345,1,[3.771352499999921],[3.7713628000001336],0,10,10,11,82.07126480000034,,82.05464380000012,82.07126480000034,83.0548859999999,83.0548859999999,83.07147830000031,83.6900900999999,space,0.6288293000002341,None,83.6913056000003,84.39588816666698,84.72952840000016,84.6930854000002,84.69381340000018,84.72952840000016,84.72952840000016,84.72952840000016,88.50200760000007,345,1,[3.771352499999921],[3.7713628000001336],052167,001,2024-11-13_13h45.43.780,intentional_binding,2024.2.1post4,60.9114299078454,2024-11-13 13h45.53.332322 +0530,
0.1,1000,exp,11,11,0,space,4.151284699999906,None,222,1,[2.552140899999813],[2.5521532999996452],0,11,11,3,88.51424459999998,,88.50244100000009,88.51424459999998,89.51276250000001,89.51276250000001,89.5294815000002,93.66605580000032,space,4.151284699999906,None,93.66727470000023,93.78007986666695,94.11460070000021,94.08295850000013,94.08369579999999,94.11460070000021,94.11460070000021,94.11460070000021,96.66756380000015,222,1,[2.552140899999813],[2.5521532999996452],052167,001,2024-11-13_13h45.43.780,intentional_binding,2024.2.1post4,60.9114299078454,2024-11-13 13h45.53.332322 +0530,
0.1,1000,exp,12,0,1,space,2.596759199999724,None,234,1,[2.0020620000000235],[2.0020825999999943],1,0,12,3,96.67955920000031,,96.66783639999994,96.67955920000031,97.67974840000034,97.67974840000034,97.67974840000034,100.28257510000003,space,2.596759199999724,None,100.28380379999999,100.39691556666664,100.73027450000018,100.69320220000009,100.69397500000014,100.73027450000018,100.73027450000018,100.73027450000018,102.73363890000019,234,1,[2.0020620000000235],[2.0020825999999943],052167,001,2024-11-13_13h45.43.780,intentional_binding,2024.2.1post4,60.9114299078454,2024-11-13 13h45.53.332322 +0530,
0.1,1000,exp,13,1,1,space,1.5612168999996356,None,345,1,[3.651281000000381],[3.6512925000001815],1,1,13,9,102.74698630000012,,102.7341363999999,102.74698630000012,103.74701770000001,103.74701770000001,103.74701770000001,105.3241908,space,1.5612168999996356,None,105.32539440000028,105.43040326666666,105.76364710000007,105.73300020000033,105.73374240000021,105.76364710000007,105.76364710000007,105.76364710000007,109.41563279999991,345,1,[3.651281000000381],[3.6512925000001815],052167,001,2024-11-13_13h45.43.780,intentional_binding,2024.2.1post4,60.9114299078454,2024-11-13 13h45.53.332322 +0530,
0.4,400,unexp,14,2,1,space,2.6298461999999745,None,456,1,[2.2936156000000665],[2.293625599999814],1,2,14,1,109.43049920000021,,109.41587770000024,109.43049920000021,110.4306145999999,110.4306145999999,110.4306145999999,113.06641880000006,space,2.6298461999999745,None,113.06790470000033,113.48081986666672,113.821958,113.78869780000014,113.79150170000003,113.821958,113.821958,113.821958,116.11653230000002,456,1,[2.2936156000000665],[2.293625599999814],052167,001,2024-11-13_13h45.43.780,intentional_binding,2024.2.1post4,60.9114299078454,2024-11-13 13h45.53.332322 +0530,
0.1,1000,exp,15,3,1,space,2.935277099999894,None,456,1,[2.577021899999636],[2.577034499999627],1,3,15,6,116.13088139999991,,116.11681120000003,116.13088139999991,117.13099090000014,117.13099090000014,117.13099090000014,120.08247359999996,space,2.935277099999894,None,120.08336880000024,120.19803026666683,120.53107810000029,120.49316309999995,120.49390489999996,120.53107810000029,120.53107810000029,120.53107810000029,123.10902460000034,456,1,[2.577021899999636],[2.577034499999627],052167,001,2024-11-13_13h45.43.780,intentional_binding,2024.2.1post4,60.9114299078454,2024-11-13 13h45.53.332322 +0530,
0.4,1000,exp,16,4,1,space,2.062596400000075,None,123,1,[3.034856799999943],[3.0348681000000397],1,4,16,10,123.12295700000004,,123.10940710000023,123.12295700000004,124.12323800000013,124.12323800000013,124.12323800000013,126.1913442,space,2.062596400000075,None,126.19232730000022,126.60629096666686,126.93112240000028,126.9027971999999,126.90342240000018,126.93112240000028,126.93112240000028,126.93112240000028,129.96698240000023,123,1,[3.034856799999943],[3.0348681000000397],052167,001,2024-11-13_13h45.43.780,intentional_binding,2024.2.1post4,60.9114299078454,2024-11-13 13h45.53.332322 +0530,
0.4,1000,exp,17,5,1,space,9.302663699999812,None,780,1,[3.750391799999761],[3.7504119000000173],1,5,17,4,129.98137889999998,,129.96743229999993,129.98137889999998,130.9816065,130.9816065,130.9816065,140.29246620000004,space,9.302663699999812,None,140.29368079999995,140.69866486666686,141.03395769999997,141.00285470000017,141.0035769000001,141.03395769999997,141.03395769999997,141.03395769999997,144.78569590000006,780,1,[3.750391799999761],[3.7504119000000173],052167,001,2024-11-13_13h45.43.780,intentional_binding,2024.2.1post4,60.9114299078454,2024-11-13 13h45.53.332322 +0530,
0.4,1000,exp,18,6,1,space,0.3801140000000487,None,506,1,[4.325192399999651],[4.325212199999896],1,6,18,7,144.79896989999997,,144.78618559999995,144.79896989999997,145.79876990000002,145.79876990000002,145.79876990000002,146.18461620000016,space,0.3801140000000487,None,146.18597640000007,146.59893246666687,146.93282309999995,146.90291770000022,146.90363389999993,146.93282309999995,146.93282309999995,146.93282309999995,151.2593096999999,506,1,[4.325192399999651],[4.325212199999896],052167,001,2024-11-13_13h45.43.780,intentional_binding,2024.2.1post4,60.9114299078454,2024-11-13 13h45.53.332322 +0530,
0.7,400,unexp,19,7,1,space,0.3713566000001265,None,1,1,[2.676430800000162],[2.6764493000000584],1,7,19,2,151.2744818000001,,151.25979450000023,151.2744818000001,152.2745318000002,152.2745318000002,152.2745318000002,152.66010610000012,space,0.3713566000001265,None,152.66192279999996,153.3661855666667,153.69980860000032,153.66310380000004,153.66396430000032,153.69980860000032,153.69980860000032,153.69980860000032,156.37729350000018,1,1,[2.676430800000162],[2.6764493000000584],052167,001,2024-11-13_13h45.43.780,intentional_binding,2024.2.1post4,60.9114299078454,2024-11-13 13h45.53.332322 +0530,
0.7,1000,exp,20,8,1,space,1.0308304000000135,None,233 ,1,[2.4932856000000356],[2.493294599999899],1,8,20,8,156.39122180000004,,156.37785299999996,156.39122180000004,157.39163850000023,157.39163850000023,157.39163850000023,158.42683390000002,space,1.0308304000000135,None,158.4280676000003,159.1327750666667,159.4660530000001,159.43296110000028,159.4337243,159.4660530000001,159.4660530000001,159.4660530000001,161.9603092000002,233 ,1,[2.4932856000000356],[2.493294599999899],052167,001,2024-11-13_13h45.43.780,intentional_binding,2024.2.1post4,60.9114299078454,2024-11-13 13h45.53.332322 +0530,
0.7,1000,exp,21,9,1,space,1.1525864999998703,None,293,1,[3.72757109999975],[3.7276222000000416],1,9,21,5,161.97472289999996,,161.96057950000022,161.97472289999996,162.97498620000033,162.97498620000033,162.97498620000033,164.1439848,space,1.1525864999998703,None,164.14532899999995,164.84970586666694,165.1897667000003,165.15308080000023,165.15390419999994,165.1897667000003,165.1897667000003,165.1897667000003,168.9190034000003,293,1,[3.72757109999975],[3.7276222000000416],052167,001,2024-11-13_13h45.43.780,intentional_binding,2024.2.1post4,60.9114299078454,2024-11-13 13h45.53.332322 +0530,
0.1,400,unexp,22,10,1,space,1.1299911000000975,None,14,1,[1.9138379000000896],[1.9138534999997319],1,10,22,0,168.93329250000033,,168.91949760000034,168.93329250000033,169.93332230000033,169.93332230000033,169.93332230000033,171.0690767000001,space,1.1299911000000975,None,171.0704063000003,171.18329866666662,171.52129830000013,171.48348650000025,171.48437719999993,171.52129830000013,171.52129830000013,171.52129830000013,173.4360386000003,14,1,[1.9138379000000896],[1.9138534999997319],052167,001,2024-11-13_13h45.43.780,intentional_binding,2024.2.1post4,60.9114299078454,2024-11-13 13h45.53.332322 +0530,
0.7,1000,exp,23,11,1,space,1.0276671999999962,None,28,1,[5.332253799999762],[5.332264099999975],1,11,23,11,173.44968300000028,,173.4363870000002,173.44968300000028,174.45017320000034,174.45017320000034,174.45017320000034,175.48595560000012,space,1.0276671999999962,None,175.48719740000024,176.20022596666675,176.53873620000013,176.50291349999998,176.5036594000003,176.53873620000013,176.53873620000013,176.53873620000013,181.87167960000033,28,1,[5.332253799999762],[5.332264099999975],052167,001,2024-11-13_13h45.43.780,intentional_binding,2024.2.1post4,60.9114299078454,2024-11-13 13h45.53.332322 +0530,
0.1,400,unexp,24,0,2,space,1.1785260000001472,None,25,1,[2.0506780999999137],[2.050707599999896],2,0,24,0,181.88333980000016,,181.87195939999992,181.88333980000016,182.88387450000027,182.88387450000027,182.88387450000027,184.06957349999993,space,1.1785260000001472,None,184.07094000000006,184.1839195666669,184.5172176000001,184.48300900000004,184.48404160000018,184.5172176000001,184.5172176000001,184.5172176000001,186.56925070000034,25,1,[2.0506780999999137],[2.050707599999896],052167,001,2024-11-13_13h45.43.780,intentional_binding,2024.2.1post4,60.9114299078454,2024-11-13 13h45.53.332322 +0530,
0.7,1000,exp,25,1,2,space,1.3297418000001926,None,600,1,[2.900140199999896],[2.900156100000004],2,1,25,11,186.58396859999993,,186.56976710000026,186.58396859999993,187.58407820000002,187.58407820000002,187.58407820000002,188.91932150000002,space,1.3297418000001926,None,188.92057030000024,189.63418756666695,189.96751140000015,189.93278790000022,189.93374500000027,189.96751140000015,189.96751140000015,189.96751140000015,192.8685516999999,600,1,[2.900140199999896],[2.900156100000004],052167,001,2024-11-13_13h45.43.780,intentional_binding,2024.2.1post4,60.9114299078454,2024-11-13 13h45.53.332322 +0530,
0.4,1000,exp,26,2,2,space,1.8022280000000137,None,008,1,[5.617084200000136],[5.617119800000182],2,2,26,7,192.88396730000022,,192.86885680000023,192.88396730000022,193.88433600000008,193.88433600000008,193.88433600000008,195.7025179000002,space,1.8022280000000137,None,195.70355450000034,196.11772056666658,196.4514320000003,196.41288910000003,196.4136139000002,196.4514320000003,196.4514320000003,196.4514320000003,202.07010480000008,008,1,[5.617084200000136],[5.617119800000182],052167,001,2024-11-13_13h45.43.780,intentional_binding,2024.2.1post4,60.9114299078454,2024-11-13 13h45.53.332322 +0530,
0.4,400,unexp,27,3,2,space,0.2878443000004154,None,485,1,[3.0701789999998255],[3.0701930999998694],2,3,27,1,202.0846921000002,,202.07057570000006,202.0846921000002,203.08475480000016,203.08475480000016,203.08475480000016,203.386798,space,0.2878443000004154,None,203.38801869999998,203.80193536666664,204.1357923999999,204.10297280000032,204.1037283999999,204.1357923999999,204.1357923999999,204.1357923999999,207.20700890000035,485,1,[3.0701789999998255],[3.0701930999998694],052167,001,2024-11-13_13h45.43.780,intentional_binding,2024.2.1post4,60.9114299078454,2024-11-13 13h45.53.332322 +0530,
0.7,400,unexp,28,4,2,space,1.2333078999999998,None,634,1,[1.9970545000001039],[1.9970687999998518],2,4,28,2,207.21854060000032,,207.20725410000023,207.21854060000032,208.2183127000003,208.2183127000003,208.2183127000003,209.45435799999996,space,1.2333078999999998,None,209.45554850000008,210.16841016666675,210.50492179999992,210.47286770000028,210.47360430000026,210.50492179999992,210.50492179999992,210.50492179999992,212.5028972,634,1,[1.9970545000001039],[1.9970687999998518],052167,001,2024-11-13_13h45.43.780,intentional_binding,2024.2.1post4,60.9114299078454,2024-11-13 13h45.53.332322 +0530,
0.1,1000,exp,29,5,2,space,0.9514674000001833,None,234,1,[1.74775499999987],[1.7477688999997554],2,5,29,6,212.5182689000003,,212.50320890000012,212.5182689000003,213.51860430000033,213.51860430000033,213.51860430000033,214.48787390000007,space,0.9514674000001833,None,214.48983369999996,214.60196506666696,214.93827020000026,214.90303220000033,214.90378660000033,214.93827020000026,214.93827020000026,214.93827020000026,216.68704190000017,234,1,[1.74775499999987],[1.7477688999997554],052167,001,2024-11-13_13h45.43.780,intentional_binding,2024.2.1post4,60.9114299078454,2024-11-13 13h45.53.332322 +0530,
0.7,1000,exp,30,6,2,space,1.0201692999999068,None,786,1,[3.1012809999997444],[3.1012919999998303],2,6,30,5,216.70159790000025,,216.68735000000015,216.70159790000025,217.7020923,217.7020923,217.7020923,218.7374565,space,1.0201692999999068,None,218.73874190000015,219.45208746666665,219.7866825000001,219.75320340000007,219.75394559999995,219.7866825000001,219.7866825000001,219.7866825000001,222.8888347000002,786,1,[3.1012809999997444],[3.1012919999998303],052167,001,2024-11-13_13h45.43.780,intentional_binding,2024.2.1post4,60.9114299078454,2024-11-13 13h45.53.332322 +0530,
0.1,1000,exp,31,7,2,space,1.4961865999998736,None,989,1,[4.101056900000003],[4.101070499999878],2,7,31,9,222.90195549999999,,222.88911700000017,222.90195549999999,223.90232770000011,223.90232770000011,223.90232770000011,225.40441620000001,space,1.4961865999998736,None,225.40565480000032,225.51954466666692,225.85307880000028,225.8228764999999,225.82363320000013,225.85307880000028,225.85307880000028,225.85307880000028,229.9552736999999,989,1,[4.101056900000003],[4.101070499999878],052167,001,2024-11-13_13h45.43.780,intentional_binding,2024.2.1post4,60.9114299078454,2024-11-13 13h45.53.332322 +0530,
0.4,1000,exp,32,8,2,space,0.9124352999997427,None,096,1,[4.3926753000000645],[4.392702600000121],2,8,32,10,229.9689556000003,,229.95555140000033,229.9689556000003,230.9691017,230.9691017,230.9691017,231.88698780000004,space,0.9124352999997427,None,231.88788870000008,232.30236356666663,232.63596989999996,232.60280650000004,232.60355070000014,232.63596989999996,232.63596989999996,232.63596989999996,237.03020240000023,096,1,[4.3926753000000645],[4.392702600000121],052167,001,2024-11-13_13h45.43.780,intentional_binding,2024.2.1post4,60.9114299078454,2024-11-13 13h45.53.332322 +0530,
0.7,1000,exp,33,9,2,space,1.0063355000002048,None,740,1,[6.0132886999999755],[6.013308999999936],2,9,33,8,237.04490440000018,,237.03091760000007,237.04490440000018,238.04528470000014,238.04528470000014,238.04528470000014,239.06357470000012,space,1.0063355000002048,None,239.06484580000006,239.76970036666697,240.1074521999999,240.07301730000017,240.07466650000015,240.1074521999999,240.1074521999999,240.1074521999999,246.12169110000013,740,1,[6.0132886999999755],[6.013308999999936],052167,001,2024-11-13_13h45.43.780,intentional_binding,2024.2.1post4,60.9114299078454,2024-11-13 13h45.53.332322 +0530,
0.4,1000,exp,34,10,2,space,0.5381344000002173,None,,1,[0.4340664999999717],[0.43408729999964635],2,10,34,4,246.1362892000002,,246.12206540000034,246.1362892000002,247.13671870000007,247.13671870000007,247.13671870000007,247.6890988,space,0.5381344000002173,None,247.69041240000024,248.10340386666692,248.43669810000029,248.4031216000003,248.4040086,248.43669810000029,248.43669810000029,248.43669810000029,248.87212990000035,,1,[0.4340664999999717],[0.43408729999964635],052167,001,2024-11-13_13h45.43.780,intentional_binding,2024.2.1post4,60.9114299078454,2024-11-13 13h45.53.332322 +0530,
0.1,1000,exp,35,11,2,space,3.0943168999997397,None,600,1,[2.4853805000002467],[2.4854012999999213],2,11,35,3,248.88673500000004,,248.87263520000033,248.88673500000004,249.8869181,249.8869181,249.8869181,252.99756019999995,space,3.0943168999997397,None,252.99883660000023,253.1035963666666,253.4442951000001,253.4030657000003,253.4040742000002,253.4442951000001,253.4442951000001,253.4442951000001,255.93105120000018,600,1,[2.4853805000002467],[2.4854012999999213],052167,001,2024-11-13_13h45.43.780,intentional_binding,2024.2.1post4,60.9114299078454,2024-11-13 13h45.53.332322 +0530,
0.7,1000,exp,36,0,3,space,1.2675266999999621,None,456,1,[2.510295600000063],[2.5103116000000227],3,0,36,8,255.9457342999999,,255.93156050000016,255.9457342999999,256.9457626000003,256.9457626000003,256.9457626000003,258.23908789999996,space,1.2675266999999621,None,258.2403282,258.953837466667,259.28714070000024,259.2528381000002,259.2538311000003,259.28714070000024,259.28714070000024,259.28714070000024,261.7983641999999,456,1,[2.510295600000063],[2.5103116000000227],052167,001,2024-11-13_13h45.43.780,intentional_binding,2024.2.1post4,60.9114299078454,2024-11-13 13h45.53.332322 +0530,
0.1,1000,exp,37,1,3,space,1.3486291999997775,None,345,1,[3.1578667000003406],[3.1578911000001426],3,1,37,3,261.81240879999996,,261.79864160000034,261.81240879999996,262.81271110000034,262.81271110000034,262.81271110000034,264.16526840000006,space,1.3486291999997775,None,264.1665819,264.2707928666666,264.60475780000024,264.5727879000001,264.57354669999995,264.60475780000024,264.60475780000024,264.60475780000024,267.7639670000003,345,1,[3.1578667000003406],[3.1578911000001426],052167,001,2024-11-13_13h45.43.780,intentional_binding,2024.2.1post4,60.9114299078454,2024-11-13 13h45.53.332322 +0530,
0.4,1000,exp,38,2,3,space,1.0369390999999268,None,264,1,[2.8925306000001],[2.8925523000002613],3,2,38,10,267.7795438000003,,267.76445460000014,267.7795438000003,268.7794719000003,268.7794719000003,268.7794719000003,269.83112329999994,space,1.0369390999999268,None,269.8322662999999,270.2459359666666,270.57204219999994,270.5425034,270.5431771000003,270.57204219999994,270.57204219999994,270.57204219999994,273.4658902000001,264,1,[2.8925306000001],[2.8925523000002613],052167,001,2024-11-13_13h45.43.780,intentional_binding,2024.2.1post4,60.9114299078454,2024-11-13 13h45.53.332322 +0530,
0.4,1000,exp,39,3,3,space,2.831916800000272,None,209,1,[2.4062097999999423],[2.406224800000018],3,3,39,7,273.4798221000001,,273.4663952000001,273.4798221000001,274.4798581,274.4798581,274.4798581,277.31580350000013,space,2.831916800000272,None,277.31749690000015,277.72141336666687,278.0544841000001,278.02266869999994,278.0233989000003,278.0544841000001,278.0544841000001,278.0544841000001,280.4616550999999,209,1,[2.4062097999999423],[2.406224800000018],052167,001,2024-11-13_13h45.43.780,intentional_binding,2024.2.1post4,60.9114299078454,2024-11-13 13h45.53.332322 +0530,
0.7,1000,exp,40,4,3,space,0.5410443999999188,None,869,1,[2.9482114000002184],[2.948226599999998],3,4,40,5,280.47990400000026,,280.4619809999999,280.47990400000026,281.4636889000003,281.4636889000003,281.48021610000023,282.0154299999999,space,0.5410443999999188,None,282.01667180000004,282.72154066666667,283.0567200999999,283.02268700000013,283.02344270000003,283.0567200999999,283.0567200999999,283.0567200999999,286.00585309999997,869,1,[2.9482114000002184],[2.948226599999998],052167,001,2024-11-13_13h45.43.780,intentional_binding,2024.2.1post4,60.9114299078454,2024-11-13 13h45.53.332322 +0530,
0.7,1000,exp,41,5,3,space,0.675289000000248,None,456,1,[3.2187042999998994],[3.2187321999999767],3,5,41,11,286.02141389999997,,286.00622440000006,286.02141389999997,287.00511099999994,287.00511099999994,287.0214917000003,287.69053239999994,space,0.675289000000248,None,287.6917692000002,288.40516646666697,288.7384890000003,288.70267379999996,288.7034123000003,288.7384890000003,288.7384890000003,288.7384890000003,291.95861809999997,456,1,[3.2187042999998994],[3.2187321999999767],052167,001,2024-11-13_13h45.43.780,intentional_binding,2024.2.1post4,60.9114299078454,2024-11-13 13h45.53.332322 +0530,
0.4,400,unexp,42,6,3,space,0.42184850000012375,None,345,1,[3.951794499999778],[3.951818600000024],3,6,42,1,291.97174350000023,,291.9593509000001,291.97174350000023,292.97209980000025,292.97209980000025,292.97209980000025,293.40780889999996,space,0.42184850000012375,None,293.40906399999994,293.82218146666696,294.1554920000003,294.12278160000005,294.1235134000003,294.1554920000003,294.1554920000003,294.1554920000003,298.1085929999999,345,1,[3.951794499999778],[3.951818600000024],052167,001,2024-11-13_13h45.43.780,intentional_binding,2024.2.1post4,60.9114299078454,2024-11-13 13h45.53.332322 +0530,
0.4,1000,exp,43,7,3,space,0.9820205999999416,None,980,1,[2.7266309999999976],[2.7266530000001694],3,7,43,4,298.1222031000002,,298.10908169999993,298.1222031000002,299.12231120000024,299.12231120000024,299.12231120000024,300.1080544000001,space,0.9820205999999416,None,300.10930080000026,300.5224466666666,300.8557128000002,300.82280930000024,300.82375090000005,300.8557128000002,300.8557128000002,300.8557128000002,303.5836314000003,980,1,[2.7266309999999976],[2.7266530000001694],052167,001,2024-11-13_13h45.43.780,intentional_binding,2024.2.1post4,60.9114299078454,2024-11-13 13h45.53.332322 +0530,
0.7,400,unexp,44,8,3,space,1.2336804000001393,None,647,1,[2.4273708999999144],[2.4273920999999063],3,8,44,2,303.59783319999997,,303.5841206,303.59783319999997,304.5977190000003,304.5977190000003,304.5977190000003,305.8331013000002,space,1.2336804000001393,None,305.8339301000001,306.54769776666694,306.8723986,306.84256410000035,306.8432664000002,306.8723986,306.8723986,306.8723986,309.30101760000025,647,1,[2.4273708999999144],[2.4273920999999063],052167,001,2024-11-13_13h45.43.780,intentional_binding,2024.2.1post4,60.9114299078454,2024-11-13 13h45.53.332322 +0530,
0.1,1000,exp,45,9,3,space,2.4316988000000492,None,356,1,[3.7257873999997173],[3.7258082999996986],3,9,45,9,309.3147108000003,,309.3015832000001,309.3147108000003,310.3146386000003,310.3146386000003,310.3146386000003,312.75027950000003,space,2.4316988000000492,None,312.75154680000014,312.8564893666669,313.18954299999996,313.1526613000001,313.1533843000002,313.18954299999996,313.18954299999996,313.18954299999996,316.91663900000003,356,1,[3.7257873999997173],[3.7258082999996986],052167,001,2024-11-13_13h45.43.780,intentional_binding,2024.2.1post4,60.9114299078454,2024-11-13 13h45.53.332322 +0530,
0.1,400,unexp,46,10,3,space,1.098066000000017,None,234,1,[3.1330587000002197],[3.1330793000001904],3,10,46,0,316.9317481000003,,316.9171338000001,316.9317481000003,317.9318053000002,317.9318053000002,317.9318053000002,319.03378139999995,space,1.098066000000017,None,319.0349876,319.1398015666666,319.4739906,319.44267579999996,319.44340980000015,319.4739906,319.4739906,319.4739906,322.6083275000001,234,1,[3.1330587000002197],[3.1330793000001904],052167,001,2024-11-13_13h45.43.780,intentional_binding,2024.2.1post4,60.9114299078454,2024-11-13 13h45.53.332322 +0530,
0.1,1000,exp,47,11,3,space,1.5306540000001405,None,234,1,[2.5007963000002746],[2.50080620000017],3,11,47,6,322.62325950000013,,322.6088142000003,322.62325950000013,323.6232921999999,323.6232921999999,323.6232921999999,325.1590845999999,space,1.5306540000001405,None,325.16032440000026,325.2734572666666,325.60672030000023,325.57282970000006,325.5737987000002,325.60672030000023,325.60672030000023,325.60672030000023,328.10825049999994,234,1,[2.5007963000002746],[2.50080620000017],052167,001,2024-11-13_13h45.43.780,intentional_binding,2024.2.1post4,60.9114299078454,2024-11-13 13h45.53.332322 +0530,
0.4,1000,exp,48,0,4,space,1.1643668000001526,None,487,1,[4.018742400000065],[4.0187612000004265],4,0,48,10,328.1232906,,328.1085349,328.1232906,329.12368890000016,329.12368890000016,329.12368890000016,330.2926873000001,space,1.1643668000001526,None,330.29414270000007,330.70715986666687,331.0404245,331.0029056000003,331.0036285000001,331.0404245,331.0404245,331.0404245,335.06052480000017,487,1,[4.018742400000065],[4.0187612000004265],052167,001,2024-11-13_13h45.43.780,intentional_binding,2024.2.1post4,60.9114299078454,2024-11-13 13h45.53.332322 +0530,
0.7,400,unexp,49,1,4,space,1.194005500000003,None,563,1,[2.542511000000104],[2.5425328000001173],4,1,49,2,335.073852,,335.06102379999993,335.073852,336.07393930000035,336.07393930000035,336.07393930000035,337.2761094000002,space,1.194005500000003,None,337.2772950000003,337.9907440666668,338.32388579999997,338.29260490000024,338.29336200000034,338.32388579999997,338.32388579999997,338.32388579999997,340.86767280000004,563,1,[2.542511000000104],[2.5425328000001173],052167,001,2024-11-13_13h45.43.780,intentional_binding,2024.2.1post4,60.9114299078454,2024-11-13 13h45.53.332322 +0530,
0.1,1000,exp,50,2,4,space,3.333950300000197,None,395,1,[2.8864880000000994],[2.8865075000003344],4,2,50,6,340.8825310000002,,340.86816050000016,340.8825310000002,341.8828576000001,341.8828576000001,341.8828576000001,345.2339873000001,space,3.333950300000197,None,345.2347613000002,345.3492732666666,345.67491259999997,345.6525723,345.6531302000003,345.67491259999997,345.67491259999997,345.67491259999997,348.5624186,395,1,[2.8864880000000994],[2.8865075000003344],052167,001,2024-11-13_13h45.43.780,intentional_binding,2024.2.1post4,60.9114299078454,2024-11-13 13h45.53.332322 +0530,
0.7,1000,exp,51,3,4,space,1.1505457999996906,None,204,1,[5.559657199999947],[5.5596771000000444],4,3,51,11,348.5741548000001,,348.5628219,348.5741548000001,349.57446819999996,349.57446819999996,349.57446819999996,350.7271847000002,space,1.1505457999996906,None,350.72839410000006,351.44119836666664,351.7745881999999,351.7428156000001,351.7435496000003,351.7745881999999,351.7745881999999,351.7745881999999,357.3356630000003,204,1,[5.559657199999947],[5.5596771000000444],052167,001,2024-11-13_13h45.43.780,intentional_binding,2024.2.1post4,60.9114299078454,2024-11-13 13h45.53.332322 +0530,
0.4,1000,exp,52,4,4,space,2.238550099999884,None,372,1,[2.9878035000001546],[2.9878287999999884],4,4,52,7,357.35018489999993,,357.33614149999994,357.35018489999993,358.3505126,358.3505126,358.3505126,360.6023617999999,space,2.238550099999884,None,360.6036383999999,361.0083341666666,361.3436165000003,361.3125226000002,361.3132617000001,361.3436165000003,361.3436165000003,361.3436165000003,364.33276920000026,372,1,[2.9878035000001546],[2.9878287999999884],052167,001,2024-11-13_13h45.43.780,intentional_binding,2024.2.1post4,60.9114299078454,2024-11-13 13h45.53.332322 +0530,
0.1,1000,exp,53,5,4,space,0.5626409999999851,None,409,1,[3.251278199999888],[3.2512973999996575],4,5,53,3,364.35052050000013,,364.3332565999999,364.35052050000013,365.3340339000001,365.3340339000001,365.35056729999997,365.90298600000006,space,0.5626409999999851,None,365.9042254000001,366.00856866666686,366.3436550000001,366.3125817,366.31332169999996,366.3436550000001,366.3436550000001,366.3436550000001,369.5963334000003,409,1,[3.251278199999888],[3.2512973999996575],052167,001,2024-11-13_13h45.43.780,intentional_binding,2024.2.1post4,60.9114299078454,2024-11-13 13h45.53.332322 +0530,
0.1,400,unexp,54,6,4,space,0.21304940000027273,None,345,1,[3.8605781999999635],[3.860597300000336],4,6,54,0,369.60866030000034,,369.59682969999994,369.60866030000034,370.6088408999999,370.6088408999999,370.6088408999999,370.82781490000025,space,0.21304940000027273,None,370.8290231000001,370.9421047666667,371.2818646999999,371.2427743000003,371.2438368000003,371.2818646999999,371.2818646999999,371.2818646999999,375.1432797000002,345,1,[3.8605781999999635],[3.860597300000336],052167,001,2024-11-13_13h45.43.780,intentional_binding,2024.2.1post4,60.9114299078454,2024-11-13 13h45.53.332322 +0530,
0.4,1000,exp,55,7,4,space,0.7085108999999647,None,150,1,[3.3448916999996072],[3.3449149999996735],4,7,55,4,375.15861680000035,,375.1437095000001,375.15861680000035,376.15885230000004,376.15885230000004,376.15885230000004,376.8773016,space,0.7085108999999647,None,376.87792360000003,377.29246646666684,377.63170160000027,377.59269029999996,377.5937990000002,377.63170160000027,377.63170160000027,377.63170160000027,380.9779655000002,150,1,[3.3448916999996072],[3.3449149999996735],052167,001,2024-11-13_13h45.43.780,intentional_binding,2024.2.1post4,60.9114299078454,2024-11-13 13h45.53.332322 +0530,
0.4,400,unexp,56,8,4,space,1.541499400000248,None,293,1,[2.5231565999997656],[2.5231690999999046],4,8,56,1,380.9925539000001,,380.9784485,380.9925539000001,381.99264070000027,381.99264070000027,381.99264070000027,383.5444339999999,space,1.541499400000248,None,383.5461215,383.9590324666667,384.2924326000002,384.2622004,384.2626785000002,384.2924326000002,384.2924326000002,384.2924326000002,386.81641930000023,293,1,[2.5231565999997656],[2.5231690999999046],052167,001,2024-11-13_13h45.43.780,intentional_binding,2024.2.1post4,60.9114299078454,2024-11-13 13h45.53.332322 +0530,
0.1,1000,exp,57,9,4,space,1.6813663000002634,None,18,1,[3.640340599999945],[3.6403621999997995],4,9,57,9,386.8347001000002,,386.8167072000001,386.8347001000002,387.81863950000024,387.81863950000024,387.83481299999994,389.50353799999993,space,1.6813663000002634,None,389.5047414999999,389.60958486666664,389.94284590000007,389.91245800000024,389.9131932,389.94284590000007,389.94284590000007,389.94284590000007,393.58455460000005,18,1,[3.640340599999945],[3.6403621999997995],052167,001,2024-11-13_13h45.43.780,intentional_binding,2024.2.1post4,60.9114299078454,2024-11-13 13h45.53.332322 +0530,
0.7,1000,exp,58,10,4,space,0.596160300000065,None,296,1,[6.29371379999975],[6.293744999999944],4,10,58,5,393.60176709999996,,393.5851967000003,393.60176709999996,394.5853265999999,394.5853265999999,394.6017882000001,395.1874293999999,space,0.596160300000065,None,395.1887213,395.89322656666695,396.2266036000001,396.19261970000025,396.19359870000017,396.2266036000001,396.2266036000001,396.2266036000001,402.5220032000002,296,1,[6.29371379999975],[6.293744999999944],052167,001,2024-11-13_13h45.43.780,intentional_binding,2024.2.1post4,60.9114299078454,2024-11-13 13h45.53.332322 +0530,
0.7,1000,exp,59,11,4,space,1.0589077999998153,None,232,1,[7.209433099999842],[7.20945729999994],4,11,59,8,402.5354932,,402.52258870000014,402.5354932,403.5356133,403.5356133,403.5356133,404.60456550000026,space,1.0589077999998153,None,404.6058326000002,405.3102750666669,405.6351787000003,405.61221509999996,405.6127409999999,405.6351787000003,405.6351787000003,405.6351787000003,412.84589810000034,232,1,[7.209433099999842],[7.20945729999994],052167,001,2024-11-13_13h45.43.780,intentional_binding,2024.2.1post4,60.9114299078454,2024-11-13 13h45.53.332322 +0530,
0.4,400,unexp,60,0,5,space,0.2858802000000651,None,456,1,[3.5250903000001017],[3.5251100000000406],5,0,60,1,412.86056529999996,,412.84641680000004,412.86056529999996,413.8603518,413.8603518,413.8603518,414.14934630000016,space,0.2858802000000651,None,414.15054439999994,414.5606873666668,414.8941039000001,414.86243790000026,414.86316650000026,414.8941039000001,414.8941039000001,414.8941039000001,418.4205207,456,1,[3.5250903000001017],[3.5251100000000406],052167,001,2024-11-13_13h45.43.780,intentional_binding,2024.2.1post4,60.9114299078454,2024-11-13 13h45.53.332322 +0530,
0.1,1000,exp,61,1,5,space,1.1865669000003436,None,758,1,[3.6791457999997874],[3.6791598999998314],5,1,61,9,418.4362688000001,,418.4209969000003,418.4362688000001,419.43626670000003,419.43626670000003,419.43626670000003,420.63846330000024,space,1.1865669000003436,None,420.64003980000007,420.7442821666666,421.06926190000013,421.0425100000002,421.04350840000006,421.06926190000013,421.06926190000013,421.06926190000013,424.7495597000002,758,1,[3.6791457999997874],[3.6791598999998314],052167,001,2024-11-13_13h45.43.780,intentional_binding,2024.2.1post4,60.9114299078454,2024-11-13 13h45.53.332322 +0530,
0.4,1000,exp,62,2,5,space,0.7211695999999392,None,503,1,[3.1863366000002316],[3.186357699999917],5,2,62,4,424.7613816000003,,424.74996310000006,424.7613816000003,425.7611898,425.7611898,425.7611898,426.4963161999999,space,0.7211695999999392,None,426.49762660000033,426.911312566667,427.24444889999995,427.21244190000016,427.2131578000003,427.24444889999995,427.24444889999995,427.24444889999995,430.43219880000015,503,1,[3.1863366000002316],[3.186357699999917],052167,001,2024-11-13_13h45.43.780,intentional_binding,2024.2.1post4,60.9114299078454,2024-11-13 13h45.53.332322 +0530,
0.4,1000,exp,63,3,5,space,0.9037652999995771,None,523,1,[2.77566220000017],[2.775684900000215],5,3,63,10,430.4445728999999,,430.43267560000004,430.4445728999999,431.4447030000001,431.4447030000001,431.4447030000001,432.3638562000001,space,0.9037652999995771,None,432.36505420000003,432.77809416666673,433.1194193000001,433.08253289999993,433.0833141000003,433.1194193000001,433.1194193000001,433.1194193000001,435.89613450000024,523,1,[2.77566220000017],[2.775684900000215],052167,001,2024-11-13_13h45.43.780,intentional_binding,2024.2.1post4,60.9114299078454,2024-11-13 13h45.53.332322 +0530,
0.7,1000,exp,64,4,5,space,0.7121188999999504,None,501,1,[2.9879008999996586],[2.9879128999996283],5,4,64,11,435.9114033999999,,435.8965062000002,435.9114033999999,436.9117209000001,436.9117209000001,436.9117209000001,437.6305405000003,space,0.7121188999999504,None,437.63178730000027,438.3450790666668,438.67860210000026,438.6423526000003,438.64308299999993,438.67860210000026,438.67860210000026,438.67860210000026,441.6673058000001,501,1,[2.9879008999996586],[2.9879128999996283],052167,001,2024-11-13_13h45.43.780,intentional_binding,2024.2.1post4,60.9114299078454,2024-11-13 13h45.53.332322 +0530,
0.7,400,unexp,65,5,5,space,4.268508499999825,None,39  ,1,[8.398311000000376],[8.39832030000025],5,5,65,2,441.68708510000033,,441.66759390000016,441.68708510000033,442.6707067000002,442.6707067000002,442.68727800000033,446.9643688000001,space,4.268508499999825,None,446.96577909999996,447.6791891666669,448.0151559000001,447.9823652,447.98307780000005,448.0151559000001,448.0151559000001,448.0151559000001,456.41423780000014,39  ,1,[8.398311000000376],[8.39832030000025],052167,001,2024-11-13_13h45.43.780,intentional_binding,2024.2.1post4,60.9114299078454,2024-11-13 13h45.53.332322 +0530,
0.4,1000,exp,66,6,5,space,1.2206160000000637,None,342,1,[6.899142499999925],[6.8991751000003205],5,6,66,7,456.4288793999999,,456.4144693000003,456.4288793999999,457.4293249000002,457.4293249000002,457.4293249000002,458.66501670000025,space,1.2206160000000637,None,458.66677560000016,459.07932416666677,459.41465210000024,459.3823602000002,459.38308959999995,459.41465210000024,459.41465210000024,459.41465210000024,466.31529390000014,342,1,[6.899142499999925],[6.8991751000003205],052167,001,2024-11-13_13h45.43.780,intentional_binding,2024.2.1post4,60.9114299078454,2024-11-13 13h45.53.332322 +0530,
0.7,1000,exp,67,7,5,space,2.3185338000002957,None,409,1,[4.442841000000044],[4.442861999999877],5,7,67,8,466.3296755000001,,466.31578930000023,466.3296755000001,467.32975160000024,467.32975160000024,467.32975160000024,469.66540680000026,space,2.3185338000002957,None,469.66661380000005,470.37992536666684,470.7132491000002,470.6824882000001,470.6832144,470.7132491000002,470.7132491000002,470.7132491000002,475.1573734000003,409,1,[4.442841000000044],[4.442861999999877],052167,001,2024-11-13_13h45.43.780,intentional_binding,2024.2.1post4,60.9114299078454,2024-11-13 13h45.53.332322 +0530,
0.1,1000,exp,68,8,5,space,0.714918900000157,None,508,1,[6.584044899999753],[6.58405730000004],5,8,68,6,475.1719912000003,,475.1578884999999,475.1719912000003,476.17207940000026,476.17207940000026,476.17207940000026,476.89069830000017,space,0.714918900000157,None,476.89192820000017,476.9967843666666,477.3301827,477.2922802000003,477.29300760000024,477.3301827,477.3301827,477.3301827,483.91505780000034,508,1,[6.584044899999753],[6.58405730000004],052167,001,2024-11-13_13h45.43.780,intentional_binding,2024.2.1post4,60.9114299078454,2024-11-13 13h45.53.332322 +0530,
0.1,1000,exp,69,9,5,space,0.7136006000000634,None,703,1,[3.986685200000011],[3.986697499999991],5,9,69,3,483.9301003999999,,483.9153252000001,483.9301003999999,484.93048780000026,484.93048780000026,484.93048780000026,485.6495990000003,space,0.7136006000000634,None,485.650936,485.7639189666668,486.0986439000003,486.0622899,486.06324220000033,486.0986439000003,486.0986439000003,486.0986439000003,490.08610350000026,703,1,[3.986685200000011],[3.986697499999991],052167,001,2024-11-13_13h45.43.780,intentional_binding,2024.2.1post4,60.9114299078454,2024-11-13 13h45.53.332322 +0530,
0.1,400,unexp,70,10,5,space,1.1701224999997066,None,123 ,1,[3.8415853000001334],[3.8415949000000182],5,10,70,0,490.1058422000001,,490.08645690000003,490.1058422000001,491.0895026000003,491.0895026000003,491.10600810000005,492.2740589,space,1.1701224999997066,None,492.27481979999993,492.3890538666667,492.71426999999994,492.6919585999999,492.6924219000002,492.71426999999994,492.71426999999994,492.71426999999994,496.55672760000016,123 ,1,[3.8415853000001334],[3.8415949000000182],052167,001,2024-11-13_13h45.43.780,intentional_binding,2024.2.1post4,60.9114299078454,2024-11-13 13h45.53.332322 +0530,
0.7,1000,exp,71,11,5,space,0.606505599999764,None,222,1,[6.936687300000358],[6.936705900000106],5,11,71,5,496.5727893000003,,496.55697390000023,496.5727893000003,497.55647560000034,497.55647560000034,497.57303760000013,498.1749473,space,0.606505599999764,None,498.17618489999995,498.88120046666677,499.2143962,499.18236190000016,499.18307619999996,499.2143962,499.2143962,499.2143962,506.1520624,222,1,[6.936687300000358],[6.936705900000106],052167,001,2024-11-13_13h45.43.780,intentional_binding,2024.2.1post4,60.9114299078454,2024-11-13 13h45.53.332322 +0530,
0.7,1000,exp,72,0,6,space,0.6251883999998427,None,345,1,[2.2854855999999018],[2.2855061000000205],6,0,72,5,506.1642039000003,,506.15257040000006,506.1642039000003,507.16481680000015,507.16481680000015,507.16481680000015,507.80006760000015,space,0.6251883999998427,None,507.80129380000017,508.51488066666684,508.84829750000017,508.8123286,508.8130639000001,508.84829750000017,508.84829750000017,508.84829750000017,511.13509380000005,345,1,[2.2854855999999018],[2.2855061000000205],052167,001,2024-11-13_13h45.43.780,intentional_binding,2024.2.1post4,60.9114299078454,2024-11-13 13h45.53.332322 +0530,
0.4,400,unexp,73,1,6,space,1.8208386999999675,None,444,1,[2.4349247999998624],[2.4349475999997594],6,1,73,1,511.1487179999999,,511.13557340000034,511.1487179999999,512.1483442000003,512.1483442000003,512.1483442000003,513.9837398,space,1.8208386999999675,None,513.9849544000003,514.3984843666669,514.7323020000003,514.7022434999999,514.7029569000001,514.7323020000003,514.7323020000003,514.7323020000003,517.1685351000001,444,1,[2.4349247999998624],[2.4349475999997594],052167,001,2024-11-13_13h45.43.780,intentional_binding,2024.2.1post4,60.9114299078454,2024-11-13 13h45.53.332322 +0530,
0.1,1000,exp,74,2,6,space,5.1891420000001744,None,555,1,[3.2291094000001976],[3.2291181000000506],6,2,74,6,517.1819140000002,,517.1690205,517.1819140000002,518.1819722,518.1819722,518.1819722,523.3842225000003,space,5.1891420000001744,None,523.3855271000002,523.4987897666667,523.8397897,523.8022362000002,523.8030002999999,523.8397897,523.8397897,523.8397897,527.0696827000002,555,1,[3.2291094000001976],[3.2291181000000506],052167,001,2024-11-13_13h45.43.780,intentional_binding,2024.2.1post4,60.9114299078454,2024-11-13 13h45.53.332322 +0530,
0.4,1000,exp,75,3,6,space,1.1240516000002572,None,607,1,[2.243189899999834],[2.2432036999998672],6,3,75,4,527.0818899000001,,527.0699066000002,527.0818899000001,528.0824898000001,528.0824898000001,528.0824898000001,529.2165542000002,space,1.1240516000002572,None,529.2172224000001,529.6161264666669,529.9404589000001,529.9120756000002,529.9127425000001,529.9404589000001,529.9404589000001,529.9404589000001,532.1846064000001,607,1,[2.243189899999834],[2.2432036999998672],052167,001,2024-11-13_13h45.43.780,intentional_binding,2024.2.1post4,60.9114299078454,2024-11-13 13h45.53.332322 +0530,
0.7,400,unexp,76,4,6,space,0.5621340000002419,None,965,1,[3.6679612999996607],[3.6679724000000533],6,4,76,2,532.1988918000002,,532.1849275,532.1988918000002,533.1992256000003,533.1992256000003,533.1992256000003,533.7670606000001,space,0.5621340000002419,None,533.767801,534.4823964666668,534.8159494000001,534.7824764000002,534.7832874000001,534.8159494000001,534.8159494000001,534.8159494000001,538.4849755,965,1,[3.6679612999996607],[3.6679724000000533],052167,001,2024-11-13_13h45.43.780,intentional_binding,2024.2.1post4,60.9114299078454,2024-11-13 13h45.53.332322 +0530,
0.1,1000,exp,77,5,6,space,0.7936751999995977,None,999,1,[1.890885900000285],[1.890919500000109],6,5,77,9,538.4991256000003,,538.4852733000002,538.4991256000003,539.4995333000002,539.4995333000002,539.4995333000002,540.3017998,space,0.7936751999995977,None,540.3030137999999,540.4162614666668,540.7511488,540.7122152000002,540.7131168999999,540.7511488,540.7511488,540.7511488,542.6435323999999,999,1,[1.890885900000285],[1.890919500000109],052167,001,2024-11-13_13h45.43.780,intentional_binding,2024.2.1post4,60.9114299078454,2024-11-13 13h45.53.332322 +0530,
0.7,1000,exp,78,6,6,space,1.193645800000013,None,356,1,[10.537026500000138],[10.537057099999856],6,6,78,11,542.6583749000001,,542.6440106,542.6583749000001,543.6584015000003,543.6584015000003,543.6584015000003,544.8606021999999,space,1.193645800000013,None,544.861848,545.5664760666666,545.8998261000002,545.8622628000003,545.8630041000001,545.8998261000002,545.8998261000002,545.8998261000002,556.4386152000002,356,1,[10.537026500000138],[10.537057099999856],052167,001,2024-11-13_13h45.43.780,intentional_binding,2024.2.1post4,60.9114299078454,2024-11-13 13h45.53.332322 +0530,
0.7,1000,exp,79,7,6,space,3.2985067999998137,None,457,1,[3.274490899999819],[3.2745122999999694],6,7,79,8,556.4516585000001,,556.4393805,556.4516585000001,557.4503110999999,557.4503110999999,557.4670489,560.7516959,space,3.2985067999998137,None,560.7523371000002,561.4672413666669,561.8001443000003,561.7621805000003,561.7629345,561.8001443000003,561.8001443000003,561.8001443000003,565.0758002000002,457,1,[3.274490899999819],[3.2745122999999694],052167,001,2024-11-13_13h45.43.780,intentional_binding,2024.2.1post4,60.9114299078454,2024-11-13 13h45.53.332322 +0530,
0.4,1000,exp,80,8,6,space,0.3845780999999988,None,456,1,[2.5476198999999724],[2.547632899999826],6,8,80,7,565.0881366000003,,565.0763351999999,565.0881366000003,566.0761584000002,566.0761584000002,566.0927509000003,566.4775177000001,space,0.3845780999999988,None,566.4787497000002,566.8925542666668,567.2241539000001,567.1921844000003,567.1929052999999,567.2241539000001,567.2241539000001,567.2241539000001,569.7726876000002,456,1,[2.5476198999999724],[2.547632899999826],052167,001,2024-11-13_13h45.43.780,intentional_binding,2024.2.1post4,60.9114299078454,2024-11-13 13h45.53.332322 +0530,
0.1,1000,exp,81,9,6,space,0.4416673000000628,None,697,1,[2.3528487999997196],[2.3528684999996585],6,9,81,3,569.7843194000002,,569.7730531000002,569.7843194000002,570.7842697000001,570.7842697000001,570.7842697000001,571.2365373000002,space,0.4416673000000628,None,571.2380773,571.3509597666668,571.6841343000001,571.6519699,571.6527410000003,571.6841343000001,571.6841343000001,571.6841343000001,574.0381974000002,697,1,[2.3528487999997196],[2.3528684999996585],052167,001,2024-11-13_13h45.43.780,intentional_binding,2024.2.1post4,60.9114299078454,2024-11-13 13h45.53.332322 +0530,
0.1,400,unexp,82,10,6,space,1.2035308999998051,None,023,1,[3.9313516000001982],[3.9313684000003377],6,10,82,0,574.0509348,,574.0386628000001,574.0509348,575.0514966999999,575.0514966999999,575.0514966999999,576.2699255000002,space,1.2035308999998051,None,576.2712692,576.3844781666669,576.7236385000001,576.6822380000003,576.6830096000003,576.7236385000001,576.7236385000001,576.7236385000001,580.6563481000003,023,1,[3.9313516000001982],[3.9313684000003377],052167,001,2024-11-13_13h45.43.780,intentional_binding,2024.2.1post4,60.9114299078454,2024-11-13 13h45.53.332322 +0530,
0.4,1000,exp,83,11,6,space,1.3871604999999363,None,345,1,[3.623672499999884],[3.6236927999998443],6,11,83,10,580.6686947000003,,580.6568740000002,580.6686947000003,581.6680737000001,581.6680737000001,581.6680737000001,583.0701326000003,space,1.3871604999999363,None,583.0713942000002,583.4848301666668,583.8207262999999,583.7825492000002,583.7836413,583.8207262999999,583.8207262999999,583.8207262999999,587.4455749000003,345,1,[3.623672499999884],[3.6236927999998443],052167,001,2024-11-13_13h45.43.780,intentional_binding,2024.2.1post4,60.9114299078454,2024-11-13 13h45.53.332322 +0530,
0.7,400,unexp,84,0,7,space,1.4788831999999275,None,456,1,[4.2761131999996],[4.276134899999761],7,0,84,2,587.4603162000003,,587.4460621000003,587.4603162000003,588.4604323000003,588.4604323000003,588.4604323000003,589.9459135000002,space,1.4788831999999275,None,589.9471013000002,590.6517047666669,590.9851157000003,590.9522056999999,590.9529371000003,590.9851157000003,590.9851157000003,590.9851157000003,595.2624884000002,456,1,[4.2761131999996],[4.276134899999761],052167,001,2024-11-13_13h45.43.780,intentional_binding,2024.2.1post4,60.9114299078454,2024-11-13 13h45.53.332322 +0530,
0.1,1000,exp,85,1,7,space,3.117091900000105,None,234,1,[5.014087500000187],[5.0141130000001795],7,1,85,6,595.2773314000001,,595.2629712000003,595.2773314000001,596.2773952000002,596.2773952000002,596.2773952000002,599.3968600000003,space,3.117091900000105,None,599.3980706000002,599.5022001666669,599.8223614000003,599.8019455000003,599.8024402000001,599.8223614000003,599.8223614000003,599.8223614000003,604.8376796000002,234,1,[5.014087500000187],[5.0141130000001795],052167,001,2024-11-13_13h45.43.780,intentional_binding,2024.2.1post4,60.9114299078454,2024-11-13 13h45.53.332322 +0530,
0.1,1000,exp,86,2,7,space,2.8626610999999684,None,589,1,[3.0831923999999162],[3.0832288000001427],7,2,86,3,604.8524711,,604.8381543,604.8524711,605.8524748,605.8524748,605.8524748,608.7215094000003,space,2.8626610999999684,None,608.722718,608.8364187666668,609.170451,609.1322455,609.1332737000002,609.170451,609.170451,609.170451,612.2550842,589,1,[3.0831923999999162],[3.0832288000001427],052167,001,2024-11-13_13h45.43.780,intentional_binding,2024.2.1post4,60.9114299078454,2024-11-13 13h45.53.332322 +0530,
0.4,1000,exp,87,3,7,space,1.2461247000001094,None,603,1,[2.51675269999987],[2.516776800000116],7,3,87,10,612.2694606,,612.2555709000003,612.2694606,613.2694902000003,613.2694902000003,613.2694902000003,614.5216238000003,space,1.2461247000001094,None,614.5228886,614.9365434666668,615.2696097000003,615.2321120000001,615.2328276000003,615.2696097000003,615.2696097000003,615.2696097000003,617.7874737000002,603,1,[2.51675269999987],[2.516776800000116],052167,001,2024-11-13_13h45.43.780,intentional_binding,2024.2.1post4,60.9114299078454,2024-11-13 13h45.53.332322 +0530,
0.4,1000,exp,88,4,7,space,0.7944773999997778,None,476,1,[4.019818100000066],[4.019839499999762],7,4,88,4,617.8028939000001,,617.7878016,617.8028939000001,618.7863546000003,618.7863546000003,618.803007,619.5887858000001,space,0.7944773999997778,None,619.5900058000002,620.0030212666668,620.3363317000003,620.3025373,620.3032849000001,620.3363317000003,620.3363317000003,620.3363317000003,624.3574710000003,476,1,[4.019818100000066],[4.019839499999762],052167,001,2024-11-13_13h45.43.780,intentional_binding,2024.2.1post4,60.9114299078454,2024-11-13 13h45.53.332322 +0530,
0.4,1000,exp,89,5,7,space,0.751588399999946,None,325,1,[4.600987400000122],[4.601017200000115],7,5,89,7,624.3697857000002,,624.3579562,624.3697857000002,625.3699871000003,625.3699871000003,625.3699871000003,626.1383289,space,0.751588399999946,None,626.1395868,626.5533619666669,626.8867412,626.8520507000003,626.8530576000003,626.8867412,626.8867412,626.8867412,631.4890384,325,1,[4.600987400000122],[4.601017200000115],052167,001,2024-11-13_13h45.43.780,intentional_binding,2024.2.1post4,60.9114299078454,2024-11-13 13h45.53.332322 +0530,
0.1,400,unexp,90,6,7,space,0.564024000000245,None,483,1,[3.4344648000001143],[3.4344795000001795],7,6,90,0,631.5035668,,631.4895218000001,631.5035668,632.5036969000003,632.5036969000003,632.5036969000003,633.0721394000002,space,0.564024000000245,None,633.0733246,633.1870644666667,633.5203952000002,633.4820542000002,633.4827752000001,633.5203952000002,633.5203952000002,633.5203952000002,636.9558336,483,1,[3.4344648000001143],[3.4344795000001795],052167,001,2024-11-13_13h45.43.780,intentional_binding,2024.2.1post4,60.9114299078454,2024-11-13 13h45.53.332322 +0530,
0.7,1000,exp,91,7,7,space,0.9811799999997675,None,184,1,[3.103480000000218],[3.103490099999817],7,7,91,8,636.9699986999999,,636.9562276000001,636.9699986999999,637.9707285,637.9707285,637.9707285,638.9565904000001,space,0.9811799999997675,None,638.9579664000003,639.6706545666668,640.0038320000003,639.9721308000003,639.9730559,640.0038320000003,640.0038320000003,640.0038320000003,643.1080719000001,184,1,[3.103480000000218],[3.103490099999817],052167,001,2024-11-13_13h45.43.780,intentional_binding,2024.2.1post4,60.9114299078454,2024-11-13 13h45.53.332322 +0530,
0.7,1000,exp,92,8,7,space,0.361785399999917,None,094,1,[2.1032852999996976],[2.103298099999847],7,8,92,11,643.1203194,,643.1083556000003,643.1203194,644.1204793000002,644.1204793000002,644.1204793000002,644.4889083000003,space,0.361785399999917,None,644.4896501000003,645.2040950666667,645.5373075000002,645.5020220000001,645.5027389000002,645.5373075000002,645.5373075000002,645.5373075000002,647.6413456,094,1,[2.1032852999996976],[2.103298099999847],052167,001,2024-11-13_13h45.43.780,intentional_binding,2024.2.1post4,60.9114299078454,2024-11-13 13h45.53.332322 +0530,
0.4,400,unexp,93,9,7,space,0.8176055999997516,None,983,1,[3.0338761000002705],[3.03389610000022],7,9,93,1,647.6542662000002,,647.6416312000001,647.6542662000002,648.6543655,648.6543655,648.6543655,649.4894420999999,space,0.8176055999997516,None,649.4906725999999,649.9044366666669,650.2376441000001,650.2020117000002,650.2027435,650.2376441000001,650.2376441000001,650.2376441000001,653.2726514000001,983,1,[3.0338761000002705],[3.03389610000022],052167,001,2024-11-13_13h45.43.780,intentional_binding,2024.2.1post4,60.9114299078454,2024-11-13 13h45.53.332322 +0530,
0.1,1000,exp,94,10,7,space,1.4959884000004422,None,937,1,[2.53540619999967],[2.5354325999996945],7,10,94,9,653.2875137999999,,653.2731914000001,653.2875137999999,654.2879224000003,654.2879224000003,654.2879224000003,655.7900965000003,space,1.4959884000004422,None,655.7915312,655.9046716666669,656.2379108,656.2020188000001,656.2027480000002,656.2379108,656.2379108,656.2379108,658.7745335,937,1,[2.53540619999967],[2.5354325999996945],052167,001,2024-11-13_13h45.43.780,intentional_binding,2024.2.1post4,60.9114299078454,2024-11-13 13h45.53.332322 +0530,
0.7,1000,exp,95,11,7,space,1.0606935000000703,None,839,1,[2.363105700000233],[2.363132299999961],7,11,95,5,658.7880678000001,,658.7750203,658.7880678000001,659.7882361000002,659.7882361000002,659.7882361000002,660.8574623,space,1.0606935000000703,None,660.8590544000003,661.5717556666666,661.9095855,661.872143,661.8728764000002,661.9095855,661.9095855,661.9095855,664.2739649,839,1,[2.363105700000233],[2.363132299999961],052167,001,2024-11-13_13h45.43.780,intentional_binding,2024.2.1post4,60.9114299078454,2024-11-13 13h45.53.332322 +0530,
0.1,1000,exp,96,0,8,space,1.409065499999997,None,719,1,[3.549141099999815],[3.549161500000082],8,0,96,6,664.2883755000003,,664.2744456,664.2883755000003,665.2884371,665.2884371,665.2884371,666.7002675000003,space,1.409065499999997,None,666.70199,666.8051473666667,667.1412646000003,667.1022456000001,667.1032158000003,667.1412646000003,667.1412646000003,667.1412646000003,670.691476,719,1,[3.549141099999815],[3.549161500000082],052167,001,2024-11-13_13h45.43.780,intentional_binding,2024.2.1post4,60.9114299078454,2024-11-13 13h45.53.332322 +0530,
0.7,1000,exp,97,1,8,space,2.4748719999997775,None,811,1,[1.7005984000002172],[1.7006194999999025],8,1,97,8,670.7052199,,670.6919185000002,670.7052199,671.7054203000002,671.7054203000002,671.7054203000002,674.1908586,space,2.4748719999997775,None,674.1920812000003,674.9054889666666,675.2388358000003,675.2022024000003,675.2029293,675.2388358000003,675.2388358000003,675.2388358000003,676.9406723000002,811,1,[1.7005984000002172],[1.7006194999999025],052167,001,2024-11-13_13h45.43.780,intentional_binding,2024.2.1post4,60.9114299078454,2024-11-13 13h45.53.332322 +0530,
0.4,400,unexp,98,2,8,space,0.4355464000000211,None,963,1,[4.590786199999911],[4.590799099999913],8,2,98,1,676.9555178,,676.9410994,676.9555178,677.9556541000002,677.9556541000002,677.9556541000002,678.4076939000001,space,0.4355464000000211,None,678.4090421000001,678.8224347666667,679.1557637000001,679.1222898000001,679.1233734000002,679.1557637000001,679.1557637000001,679.1557637000001,683.7474665,963,1,[4.590786199999911],[4.590799099999913],052167,001,2024-11-13_13h45.43.780,intentional_binding,2024.2.1post4,60.9114299078454,2024-11-13 13h45.53.332322 +0530,
0.4,1000,exp,99,3,8,space,3.9141254999999546,None,592,1,[2.93508490000022],[2.9351069000003918],8,3,99,7,683.7643704000002,,683.7478205000002,683.7643704000002,684.7480905000002,684.7480905000002,684.7646271000003,688.6747105,space,3.9141254999999546,None,688.6759426000003,689.0895916666666,689.4232829000002,689.3920075000001,689.3927196,689.4232829000002,689.4232829000002,689.4232829000002,692.3597838000001,592,1,[2.93508490000022],[2.9351069000003918],052167,001,2024-11-13_13h45.43.780,intentional_binding,2024.2.1post4,60.9114299078454,2024-11-13 13h45.53.332322 +0530,
0.7,1000,exp,100,4,8,space,0.45944850000023507,None,783,1,[1.9097937999999886],[1.9098149000001285],8,4,100,5,692.3727026000001,,692.3603029999999,692.3727026000001,693.3730310999999,693.3730310999999,693.3730310999999,693.8414832000003,space,0.45944850000023507,None,693.8427104000002,694.5565052666668,694.8897343000003,694.8519733000003,694.8527045999999,694.8897343000003,694.8897343000003,694.8897343000003,696.8008676,783,1,[1.9097937999999886],[1.9098149000001285],052167,001,2024-11-13_13h45.43.780,intentional_binding,2024.2.1post4,60.9114299078454,2024-11-13 13h45.53.332322 +0530,
0.7,400,unexp,101,5,8,space,0.6844601000002513,None,552,1,[3.254065499999797],[3.2540776000000733],8,5,101,2,696.8151581000002,,696.8013567000003,696.8151581000002,697.8154858000003,697.8154858000003,697.8154858000003,698.5089829000003,space,0.6844601000002513,None,698.5101892000002,699.2232998666666,699.5567974999999,699.5218152000002,699.522704,699.5567974999999,699.5567974999999,699.5567974999999,702.8118197000003,552,1,[3.254065499999797],[3.2540776000000733],052167,001,2024-11-13_13h45.43.780,intentional_binding,2024.2.1post4,60.9114299078454,2024-11-13 13h45.53.332322 +0530,
0.4,1000,exp,102,6,8,space,0.5316938000000846,None,63,1,[2.0196477999998024],[2.019665999999688],8,6,102,10,702.8231648000001,,702.8122052000003,702.8231648000001,703.8234573,703.8234573,703.8234573,704.3594496000001,space,0.5316938000000846,None,704.3607133999999,704.7734473666667,705.1066943000001,705.0719592,705.0728947000002,705.1066943000001,705.1066943000001,705.1066943000001,707.1274027,63,1,[2.0196477999998024],[2.019665999999688],052167,001,2024-11-13_13h45.43.780,intentional_binding,2024.2.1post4,60.9114299078454,2024-11-13 13h45.53.332322 +0530,
0.1,1000,exp,103,7,8,space,0.5594051000002764,None,563,1,[3.100727800000186],[3.1007368000000497],8,7,103,9,707.1401045000002,,707.1277313999999,707.1401045000002,708.1403604000002,708.1403604000002,708.1403604000002,708.7088598,space,0.5594051000002764,None,708.7101255000002,708.8235852666669,709.1570593000001,709.1218973,709.1227530000001,709.1570593000001,709.1570593000001,709.1570593000001,712.2585211,563,1,[3.100727800000186],[3.1007368000000497],052167,001,2024-11-13_13h45.43.780,intentional_binding,2024.2.1post4,60.9114299078454,2024-11-13 13h45.53.332322 +0530,
0.1,1000,exp,104,8,8,space,0.5364132999998219,None,903,1,[2.9196965000001],[2.9197174999999334],8,8,104,3,712.2734728,,712.2587591000001,712.2734728,713.2740825000001,713.2740825000001,713.2740825000001,713.8265510000001,space,0.5364132999998219,None,713.8278296000003,713.9405302666667,714.2737063,714.2419899000001,714.2427199000003,714.2737063,714.2737063,714.2737063,717.1946378000002,903,1,[2.9196965000001],[2.9197174999999334],052167,001,2024-11-13_13h45.43.780,intentional_binding,2024.2.1post4,60.9114299078454,2024-11-13 13h45.53.332322 +0530,
0.7,1000,exp,105,9,8,space,4.402411100000336,None,873,1,[4.4713973000002625],[4.471407699999872],8,9,105,11,717.2071516999999,,717.1951196,717.2071516999999,718.2073739000002,718.2073739000002,718.2073739000002,722.6263091000001,space,4.402411100000336,None,722.6275740000001,723.3409876666667,723.6631468999999,723.6416052,723.6421450000003,723.6631468999999,723.6631468999999,723.6631468999999,728.1353709,873,1,[4.4713973000002625],[4.471407699999872],052167,001,2024-11-13_13h45.43.780,intentional_binding,2024.2.1post4,60.9114299078454,2024-11-13 13h45.53.332322 +0530,
0.4,1000,exp,106,10,8,space,0.9565173999999388,None,872,1,[3.3100468000002365],[3.3100695000002816],8,10,106,4,728.1496324,,728.1356377000002,728.1496324,729.1497941000002,729.1497941000002,729.1497941000002,730.1189528,space,0.9565173999999388,None,730.1204010000001,730.5246008666666,730.8580350000002,730.8219144,730.8226434000003,730.8580350000002,730.8580350000002,730.8580350000002,734.1693296000003,872,1,[3.3100468000002365],[3.3100695000002816],052167,001,2024-11-13_13h45.43.780,intentional_binding,2024.2.1post4,60.9114299078454,2024-11-13 13h45.53.332322 +0530,
0.1,400,unexp,107,11,8,space,4.220802599999843,None,729,1,[3.7345086000000265],[3.734536399999797],8,11,107,0,734.1834761,,734.1698081,734.1834761,735.183481,735.183481,735.183481,739.4190960999999,space,4.220802599999843,None,739.4204463000001,739.5250180666669,739.8585353000003,739.8218265,739.8225444,739.8585353000003,739.8585353000003,739.8585353000003,743.594376,729,1,[3.7345086000000265],[3.734536399999797],052167,001,2024-11-13_13h45.43.780,intentional_binding,2024.2.1post4,60.9114299078454,2024-11-13 13h45.53.332322 +0530,
0.1,1000,exp,108,0,9,space,0.44990029999962644,None,789,1,[3.4010886999999457],[3.4011124999997264],9,0,108,6,743.6085439000003,,743.5948591000001,743.6085439000003,744.6085095000003,744.6085095000003,744.6085095000003,745.0611159,space,0.44990029999962644,None,745.0625058999999,745.1754056666666,745.5086490000003,745.4719466000001,745.4726737999999,745.5086490000003,745.5086490000003,745.5086490000003,748.9111443000002,789,1,[3.4010886999999457],[3.4011124999997264],052167,001,2024-11-13_13h45.43.780,intentional_binding,2024.2.1post4,60.9114299078454,2024-11-13 13h45.53.332322 +0530,
0.4,1000,exp,109,1,9,space,3.63140999999996,None,462,1,[3.1339222000001428],[3.133945699999913],9,1,109,4,748.9253994000001,,748.9116251,748.9253994000001,749.9254997000003,749.9254997000003,749.9254997000003,753.5607442,space,3.63140999999996,None,753.5620348000002,753.9757399666667,754.3090089000002,754.2721206000001,754.2728300000003,754.3090089000002,754.3090089000002,754.3090089000002,757.4441793999999,462,1,[3.1339222000001428],[3.133945699999913],052167,001,2024-11-13_13h45.43.780,intentional_binding,2024.2.1post4,60.9114299078454,2024-11-13 13h45.53.332322 +0530,
0.7,1000,exp,110,2,9,space,2.928931200000079,None,571,1,[2.650901099999828],[2.650929100000212],9,2,110,11,757.4590776999999,,757.4446521000004,757.4590776999999,758.4591746000001,758.4591746000001,758.4591746000001,761.3946369999999,space,2.928931200000079,None,761.3958476000003,762.1093430666667,762.4431953999997,762.4117786000002,762.4126864000004,762.4431953999997,762.4431953999997,762.4431953999997,765.0953227000005,571,1,[2.650901099999828],[2.650929100000212],052167,001,2024-11-13_13h45.43.780,intentional_binding,2024.2.1post4,60.9114299078454,2024-11-13 13h45.53.332322 +0530,
0.1,400,unexp,111,3,9,space,2.1896661000000677,None,492,1,[5.543516899999304],[5.543536600000152],9,3,111,0,765.1093936000002,,765.0958633000005,765.1093936000002,766.1094380999998,766.1094380999998,766.1094380999998,768.3119555999997,space,2.1896661000000677,None,768.3137253,768.4264052666665,768.7596403000002,768.7218641000004,768.7227107000003,768.7596403000002,768.7596403000002,768.7596403000002,774.3045699999998,492,1,[5.543516899999304],[5.543536600000152],052167,001,2024-11-13_13h45.43.780,intentional_binding,2024.2.1post4,60.9114299078454,2024-11-13 13h45.53.332322 +0530,
0.4,1000,exp,112,4,9,space,5.321676699999443,None,972,1,[3.968944299999748],[3.9689667000002373],9,4,112,7,774.3185859999999,,774.3050745000005,774.3185859999999,775.3190699000002,775.3190699000002,775.3190699000002,780.6457473000005,space,5.321676699999443,None,780.6470037000004,781.0601031666672,781.3937182000004,781.3620538999999,781.3627597999998,781.3937182000004,781.3937182000004,781.3937182000004,785.3640817,972,1,[3.968944299999748],[3.9689667000002373],052167,001,2024-11-13_13h45.43.780,intentional_binding,2024.2.1post4,60.9114299078454,2024-11-13 13h45.53.332322 +0530,
0.4,1000,exp,113,5,9,space,0.9272084000003815,None,983,1,[3.58679310000025],[3.586810799999512],9,5,113,10,785.3769256999999,,785.3645638000003,785.3769256999999,786.3770520000003,786.3770520000003,786.3770520000003,787.3129365,space,0.9272084000003815,None,787.3141565999999,787.7271068666666,788.0604752000004,788.0219313000002,788.0226532000001,788.0604752000004,788.0604752000004,788.0604752000004,791.6480558999997,983,1,[3.58679310000025],[3.586810799999512],052167,001,2024-11-13_13h45.43.780,intentional_binding,2024.2.1post4,60.9114299078454,2024-11-13 13h45.53.332322 +0530,
0.1,1000,exp,114,6,9,space,0.739017399999284,None,974,1,[2.6847771000002467],[2.684796599999572],9,6,114,3,791.6603888000004,,791.6483094999999,791.6603888000004,792.6605966000002,792.6605966000002,792.6605966000002,793.4116337,space,0.739017399999284,None,793.412433,793.5272511666669,793.8442633,793.8214216000001,793.8219001000002,793.8442633,793.8442633,793.8442633,796.5301450000002,974,1,[2.6847771000002467],[2.684796599999572],052167,001,2024-11-13_13h45.43.780,intentional_binding,2024.2.1post4,60.9114299078454,2024-11-13 13h45.53.332322 +0530,
0.7,1000,exp,115,7,9,space,1.3845369000000574,None,093,1,[2.18439219999982],[2.184402300000329],9,7,115,5,796.5444440000006,,796.5305573999999,796.5444440000006,797.5442978000005,797.5442978000005,797.5442978000005,798.9458675000001,space,1.3845369000000574,None,798.9470837000003,799.6610357666666,799.9954178000003,799.9618606999998,799.9626787000002,799.9954178000003,799.9954178000003,799.9954178000003,802.1806191999999,093,1,[2.18439219999982],[2.184402300000329],052167,001,2024-11-13_13h45.43.780,intentional_binding,2024.2.1post4,60.9114299078454,2024-11-13 13h45.53.332322 +0530,
0.4,400,unexp,116,8,9,space,0.8672407000003659,None,972,1,[3.2837196000000404],[3.283755299999939],9,8,116,1,802.1945052000005,,802.1809027000004,802.1945052000005,803.1945440000004,803.1945440000004,803.1945440000004,804.0645694999998,space,0.8672407000003659,None,804.0658694999997,804.4781880666667,804.8122752000004,804.7817252,804.7824451000001,804.8122752000004,804.8122752000004,804.8122752000004,808.0978043999999,972,1,[3.2837196000000404],[3.283755299999939],052167,001,2024-11-13_13h45.43.780,intentional_binding,2024.2.1post4,60.9114299078454,2024-11-13 13h45.53.332322 +0530,
0.1,1000,exp,117,9,9,space,2.216833599999518,None,123,1,[2.7050366000003123],[2.7050546999998915],9,9,117,9,808.1110227000004,,808.0984872000004,808.1110227000004,809.1114010000006,809.1114010000006,809.1114010000006,811.3315103999998,space,2.216833599999518,None,811.3327425000002,811.4448624666663,811.7781749000001,811.7418235,811.7425598000004,811.7781749000001,811.7781749000001,811.7781749000001,814.4842758,123,1,[2.7050366000003123],[2.7050546999998915],052167,001,2024-11-13_13h45.43.780,intentional_binding,2024.2.1post4,60.9114299078454,2024-11-13 13h45.53.332322 +0530,
0.7,400,unexp,118,10,9,space,1.1846040999998877,None,234,1,[2.6240201000000525],[2.624042299999928],9,10,118,2,814.4960137000003,,814.4845832000005,814.4960137000003,815.4950548000002,815.4950548000002,815.4950548000002,816.6973981000006,space,1.1846040999998877,None,816.6987530000001,817.4118000666665,817.7459080000003,817.7119827000001,817.7128141999997,817.7459080000003,817.7459080000003,817.7459080000003,820.3712181000005,234,1,[2.6240201000000525],[2.624042299999928],052167,001,2024-11-13_13h45.43.780,intentional_binding,2024.2.1post4,60.9114299078454,2024-11-13 13h45.53.332322 +0530,
0.7,1000,exp,119,11,9,space,2.225043800000094,None,735 ,1,[2.9844318999994357],[2.9844647999998415],9,11,119,8,820.3872769000004,,820.3716963000002,820.3872769000004,821.3711472,821.3711472,821.3873174000005,823.6059270000001,space,2.225043800000094,None,823.6071378000001,824.3120410666668,824.6453922000005,824.6118121000004,824.6126612000003,824.6453922000005,824.6453922000005,824.6453922000005,827.6312257000004,735 ,1,[2.9844318999994357],[2.9844647999998415],052167,001,2024-11-13_13h45.43.780,intentional_binding,2024.2.1post4,60.9114299078454,2024-11-13 13h45.53.332322 +0530,
0.1,1000,exp,120,0,10,space,1.4829554999996617,None,623,1,[2.668906899999456],[2.668927199999416],10,0,120,3,827.6454731999997,,827.6317168,827.6454731999997,828.6456542999999,828.6456542999999,828.6456542999999,830.1318914999997,space,1.4829554999996617,None,830.1336994999997,830.2458035666666,830.5793752000004,830.5417665999998,830.5424634000005,830.5793752000004,830.5793752000004,830.5793752000004,833.2496197000005,623,1,[2.668906899999456],[2.668927199999416],052167,001,2024-11-13_13h45.43.780,intentional_binding,2024.2.1post4,60.9114299078454,2024-11-13 13h45.53.332322 +0530,
0.4,1000,exp,121,1,10,space,2.297455899999477,None,234,1,[2.4166938999997],[2.4167175000002317],10,1,121,7,833.2624794999997,,833.2501087000005,833.2624794999997,834.2626715000001,834.2626715000001,834.2626715000001,836.5646350000002,space,2.297455899999477,None,836.5658353000003,836.9791992666667,837.3134762000004,837.2821018,837.2828228000003,837.3134762000004,837.3134762000004,837.3134762000004,839.7314062999999,234,1,[2.4166938999997],[2.4167175000002317],052167,001,2024-11-13_13h45.43.780,intentional_binding,2024.2.1post4,60.9114299078454,2024-11-13 13h45.53.332322 +0530,
0.7,400,unexp,122,2,10,space,3.2812847000004695,None,684 ,1,[5.551076400000056],[5.551092700000481],10,2,122,2,839.7461433000003,,839.7318873999998,839.7461433000003,840.7461639999997,840.7461639999997,840.7461639999997,844.0319684000001,space,3.2812847000004695,None,844.0331745999997,844.7464595666668,845.0795211,845.0416293000003,845.0423397,845.0795211,845.0795211,845.0795211,850.6319805999997,684 ,1,[5.551076400000056],[5.551092700000481],052167,001,2024-11-13_13h45.43.780,intentional_binding,2024.2.1post4,60.9114299078454,2024-11-13 13h45.53.332322 +0530,
0.1,1000,exp,123,3,10,space,0.5651664999995774,None,567,1,[2.660089699999844],[2.6601207999992766],10,3,123,6,850.6465466000004,,850.6324625000002,850.6465466000004,851.6466332000005,851.6466332000005,851.6466332000005,852.2157309999998,space,0.5651664999995774,None,852.2170416000004,852.3300110666667,852.6631334999997,852.6317364000001,852.6324598000006,852.6631334999997,852.6631334999997,852.6631334999997,855.3245755000003,567,1,[2.660089699999844],[2.6601207999992766],052167,001,2024-11-13_13h45.43.780,intentional_binding,2024.2.1post4,60.9114299078454,2024-11-13 13h45.53.332322 +0530,
0.4,400,unexp,124,4,10,space,0.43928739999955724,None,478,1,[2.603075300000455],[2.603095800000119],10,4,124,1,855.3388227,,855.3250739,855.3388227,856.3388731999999,856.3388731999999,856.3388731999999,856.7911088000005,space,0.43928739999955724,None,856.7928324,857.196552066667,857.5196496000003,857.4916011999999,857.4923838,857.5196496000003,857.5196496000003,857.5196496000003,860.1238735000002,478,1,[2.603075300000455],[2.603095800000119],052167,001,2024-11-13_13h45.43.780,intentional_binding,2024.2.1post4,60.9114299078454,2024-11-13 13h45.53.332322 +0530,
0.4,1000,exp,125,5,10,space,0.40430990000004385,None,34 ,1,[2.2675013999996736],[2.267524599999888],10,5,125,10,860.1389898000002,,860.1244406000001,860.1389898000002,861.1389282000005,861.1389282000005,861.1389282000005,861.5573793999997,space,0.40430990000004385,None,861.5586020000005,861.9637184666669,862.2970777000005,862.2616433999997,862.2626062000004,862.2970777000005,862.2970777000005,862.2970777000005,864.565752,34 ,1,[2.2675013999996736],[2.267524599999888],052167,001,2024-11-13_13h45.43.780,intentional_binding,2024.2.1post4,60.9114299078454,2024-11-13 13h45.53.332322 +0530,
0.1,400,unexp,126,6,10,space,1.770121200000176,None,475,1,[2.6857237000003806],[2.6857346000006146],10,6,126,0,864.5805352000002,,864.5662211000003,864.5805352000002,865.5805368000006,865.5805368000006,865.5805368000006,867.3662049999998,space,1.770121200000176,None,867.3676472000002,867.4804920666663,867.8140213000001,867.7816173000006,867.7823399000004,867.8140213000001,867.8140213000001,867.8140213000001,870.5005531000002,475,1,[2.6857237000003806],[2.6857346000006146],052167,001,2024-11-13_13h45.43.780,intentional_binding,2024.2.1post4,60.9114299078454,2024-11-13 13h45.53.332322 +0530,
0.4,1000,exp,127,7,10,space,3.069171400000414,None,894,1,[2.4858921000004557],[2.4859091999996963],10,7,127,4,870.5136929000005,,870.5008979999998,870.5136929000005,871.5141940999997,871.5141940999997,871.5141940999997,874.5998356000005,space,3.069171400000414,None,874.6011752,875.014511066667,875.3476118000003,875.3116802,875.3123983,875.3476118000003,875.3476118000003,875.3476118000003,877.8348373000003,894,1,[2.4858921000004557],[2.4859091999996963],052167,001,2024-11-13_13h45.43.780,intentional_binding,2024.2.1post4,60.9114299078454,2024-11-13 13h45.53.332322 +0530,
0.7,1000,exp,128,8,10,space,0.9251743000004353,None,365,1,[1.6608072999997603],[1.660832599999594],10,8,128,11,877.8475929000001,,877.8353043000002,877.8475929000001,878.8479761000003,878.8479761000003,878.8479761000003,879.7826783000005,space,0.9251743000004353,None,879.7838619999998,880.4978983666667,880.8385755000004,880.8017187,880.8026999999997,880.8385755000004,880.8385755000004,880.8385755000004,882.5006567000005,365,1,[1.6608072999997603],[1.660832599999594],052167,001,2024-11-13_13h45.43.780,intentional_binding,2024.2.1post4,60.9114299078454,2024-11-13 13h45.53.332322 +0530,
0.7,1000,exp,129,9,10,space,0.34916449999946053,None,577,1,[2.1413687000003847],[2.141385099999752],10,9,129,5,882.514576,,882.5011399,882.514576,883.5146877000002,883.5146877000002,883.5146877000002,883.8671337000001,space,0.34916449999946053,None,883.8683427999999,884.5817031666663,884.9146891000005,884.8816757,884.8828859999999,884.9146891000005,884.9146891000005,884.9146891000005,887.0568586000004,577,1,[2.1413687000003847],[2.141385099999752],052167,001,2024-11-13_13h45.43.780,intentional_binding,2024.2.1post4,60.9114299078454,2024-11-13 13h45.53.332322 +0530,
0.7,1000,exp,130,10,10,space,0.4851287000001321,None,983,1,[1.5341417999998157],[1.5341656000000512],10,10,130,8,887.0733557999997,,887.0570998999997,887.0733557999997,888.0573539000002,888.0573539000002,888.0735087999997,888.5586974000003,space,0.4851287000001321,None,888.5599236000003,889.265039366667,889.5982762999997,889.5618294999999,889.5633055000003,889.5982762999997,889.5982762999997,889.5982762999997,891.1337784000002,983,1,[1.5341417999998157],[1.5341656000000512],052167,001,2024-11-13_13h45.43.780,intentional_binding,2024.2.1post4,60.9114299078454,2024-11-13 13h45.53.332322 +0530,
0.1,1000,exp,131,11,10,space,0.2931063999994876,None,482,1,[1.8584545000003345],[1.8584743000001254],10,11,131,9,891.1482902000002,,891.1342576000002,891.1482902000002,892.1484062000004,892.1484062000004,892.1484062000004,892.4506633000005,space,0.2931063999994876,None,892.4522622,892.565075766667,892.8984833,892.8616674,892.8623945000004,892.8984833,892.8984833,892.8984833,894.7581765,482,1,[1.8584545000003345],[1.8584743000001254],052167,001,2024-11-13_13h45.43.780,intentional_binding,2024.2.1post4,60.9114299078454,2024-11-13 13h45.53.332322 +0530,
0.7,400,unexp,132,0,11,space,0.8589155999998184,None,9,1,[2.3934056999996756],[2.3934204999995927],11,0,132,2,894.7738234000003,,894.7586670000005,894.7738234000003,895.7737735000005,895.7737735000005,895.7737735000005,896.6416998,space,0.8589155999998184,None,896.6423366000004,897.356954366667,897.6816814999997,897.6516033000003,897.6523676000002,897.6816814999997,897.6816814999997,897.6816814999997,900.0759113999998,9,1,[2.3934056999996756],[2.3934204999995927],052167,001,2024-11-13_13h45.43.780,intentional_binding,2024.2.1post4,60.9114299078454,2024-11-13 13h45.53.332322 +0530,
0.7,1000,exp,133,1,11,space,2.9788649000001897,None,48,1,[2.1350712000003114],[2.1350806000000375],11,1,133,8,900.0906938000003,,900.0762034000004,900.0906938000003,901.0908314000003,901.0908314000003,901.0908314000003,904.0844984999999,space,2.9788649000001897,None,904.0858309999999,904.7989439666669,905.1360471000003,905.1016180000001,905.1023885999998,905.1360471000003,905.1360471000003,905.1360471000003,907.2718375999998,48,1,[2.1350712000003114],[2.1350806000000375],052167,001,2024-11-13_13h45.43.780,intentional_binding,2024.2.1post4,60.9114299078454,2024-11-13 13h45.53.332322 +0530,
0.4,1000,exp,134,2,11,space,0.9045882000000347,None,861,1,[2.1600705000000744],[2.160092299999633],11,2,134,7,907.2909284000002,,907.2721901999998,907.2909284000002,908.2744662999999,908.2744662999999,908.2909338000004,909.1927362000001,space,0.9045882000000347,None,909.1938293999997,909.5991743666671,909.9323727000005,909.9016536000004,909.9023916000001,909.9323727000005,909.9323727000005,909.9323727000005,912.0937397000002,861,1,[2.1600705000000744],[2.160092299999633],052167,001,2024-11-13_13h45.43.780,intentional_binding,2024.2.1post4,60.9114299078454,2024-11-13 13h45.53.332322 +0530,
0.4,1000,exp,135,3,11,space,1.472577999999885,None,56,1,[1.9261243000000832],[1.926146300000255],11,3,135,4,912.1079794000002,,912.0942244000003,912.1079794000002,913.1080329000001,913.1080329000001,913.1080329000001,914.5934715999997,space,1.472577999999885,None,914.5947016000005,914.9994680666666,915.3328747,915.3016161999999,915.3023537000004,915.3328747,915.3328747,915.3328747,917.2602896000003,56,1,[1.9261243000000832],[1.926146300000255],052167,001,2024-11-13_13h45.43.780,intentional_binding,2024.2.1post4,60.9114299078454,2024-11-13 13h45.53.332322 +0530,
0.7,1000,exp,136,4,11,space,0.9873641000003772,None,78,1,[1.4507609000002049],[1.45079750000059],11,4,136,11,917.2749294999999,,917.2607617999997,917.2749294999999,918.2749092999998,918.2749092999998,918.2749092999998,919.2767639999997,space,0.9873641000003772,None,919.2779821999998,919.9829001666665,920.3166051000003,920.2816044000006,920.2825027000004,920.3166051000003,920.3166051000003,920.3166051000003,921.7690642000002,78,1,[1.4507609000002049],[1.45079750000059],052167,001,2024-11-13_13h45.43.780,intentional_binding,2024.2.1post4,60.9114299078454,2024-11-13 13h45.53.332322 +0530,
0.1,1000,exp,137,5,11,space,2.433168399999886,None,274,1,[3.3739159999995536],[3.373930599999767],11,5,137,9,921.7828771,,921.7697675000004,921.7828771,922.7831613000003,922.7831613000003,922.7831613000003,925.2180518999999,space,2.433168399999886,None,925.2189512999998,925.3331896666666,925.6665545000001,925.6315411999999,925.6326567000001,925.6665545000001,925.6665545000001,925.6665545000001,929.0413985,274,1,[3.3739159999995536],[3.373930599999767],052167,001,2024-11-13_13h45.43.780,intentional_binding,2024.2.1post4,60.9114299078454,2024-11-13 13h45.53.332322 +0530,
0.4,400,unexp,138,6,11,space,0.4054996000004394,None,450,1,[2.523200999999972],[2.523211900000206],11,6,138,1,929.0585058000001,,929.0417901000005,929.0585058000001,930.0420300999999,930.0420300999999,930.0585492000005,930.4605962999999,space,0.4054996000004394,None,930.4614938,930.8752623666667,931.1999077000005,931.1716325000002,931.1722123000004,931.1999077000005,931.1999077000005,931.1999077000005,933.7239655999997,450,1,[2.523200999999972],[2.523211900000206],052167,001,2024-11-13_13h45.43.780,intentional_binding,2024.2.1post4,60.9114299078454,2024-11-13 13h45.53.332322 +0530,
0.1,1000,exp,139,7,11,space,1.039625800000067,None,8,1,[4.900889700000334],[4.9009154000004855],11,7,139,3,933.7418144999997,,933.7241913000003,933.7418144999997,934.7255465000003,934.7255465000003,934.7421016000003,935.7777008999997,space,1.039625800000067,None,935.7789407000005,935.8836375666667,936.2168446000001,936.1817083000001,936.1825610000001,936.2168446000001,936.2168446000001,936.2168446000001,941.1192083999999,8,1,[4.900889700000334],[4.9009154000004855],052167,001,2024-11-13_13h45.43.780,intentional_binding,2024.2.1post4,60.9114299078454,2024-11-13 13h45.53.332322 +0530,
0.4,1000,exp,140,8,11,space,0.5724226000002091,None,367,1,[2.7674237999999605],[2.76745259999916],11,8,140,10,941.1340279000001,,941.1196894,941.1340279000001,942.1339743000003,942.1339743000003,942.1339743000003,942.7194319000005,space,0.5724226000002091,None,942.7206922999999,943.1339468666672,943.4673714000005,943.4314470000004,943.4322150000003,943.4673714000005,943.4673714000005,943.4673714000005,946.2361909000006,367,1,[2.7674237999999605],[2.76745259999916],052167,001,2024-11-13_13h45.43.780,intentional_binding,2024.2.1post4,60.9114299078454,2024-11-13 13h45.53.332322 +0530,
0.1,400,unexp,141,9,11,space,1.1384330999999293,None,497,1,[4.454699500000061],[4.45471869999983],11,9,141,0,946.2507895000003,,946.2366730999997,946.2507895000003,947.2508122000004,947.2508122000004,947.2508122000004,948.4034105000005,space,1.1384330999999293,None,948.4045920000003,948.5175764666672,948.8516389000001,948.8214107999997,948.8223604,948.8516389000001,948.8516389000001,948.8516389000001,953.3072527999998,497,1,[4.454699500000061],[4.45471869999983],052167,001,2024-11-13_13h45.43.780,intentional_binding,2024.2.1post4,60.9114299078454,2024-11-13 13h45.53.332322 +0530,
0.7,1000,exp,142,10,11,space,1.1983220000001893,None,412,1,[4.318390700000236],[4.3184119999996256],11,10,142,5,953.3186077000005,,953.3075515000005,953.3186077000005,954.3178426999998,954.3178426999998,954.3178426999998,955.5206240000002,space,1.1983220000001893,None,955.5219330000004,956.2345293666665,956.5696971000002,956.5315769000003,956.5322933000002,956.5696971000002,956.5696971000002,956.5696971000002,960.8893788999999,412,1,[4.318390700000236],[4.3184119999996256],052167,001,2024-11-13_13h45.43.780,intentional_binding,2024.2.1post4,60.9114299078454,2024-11-13 13h45.53.332322 +0530,
0.1,1000,exp,143,11,11,space,1.5302975000004153,None,305,1,[4.2306899000004705],[4.230699400000049],11,11,143,6,960.9017349999999,,960.8898501999997,960.9017349999999,961.9019168,961.9019168,961.9019168,963.4367377000003,space,1.5302975000004153,None,963.4381568000003,963.5515329666666,963.8930826999999,963.8517398999998,963.8527706999998,963.8930826999999,963.8930826999999,963.8930826999999,968.1246170999998,305,1,[4.2306899000004705],[4.230699400000049],052167,001,2024-11-13_13h45.43.780,intentional_binding,2024.2.1post4,60.9114299078454,2024-11-13 13h45.53.332322 +0530,
0.4,1000,exp,144,0,12,space,0.8645784999998796,None,254,1,[2.751145500000348],[2.7511700000004566],12,0,144,10,968.1435796999999,,968.1248493999997,968.1435796999999,969.1297030999999,969.1297030999999,969.1518175000006,970.0040745000001,space,0.8645784999998796,None,970.0053031000002,970.4183168666666,970.7516566999998,970.7215546000002,970.7223072000002,970.7516566999998,970.7516566999998,970.7516566999998,973.5040909000004,254,1,[2.751145500000348],[2.7511700000004566],052167,001,2024-11-13_13h45.43.780,intentional_binding,2024.2.1post4,60.9114299078454,2024-11-13 13h45.53.332322 +0530,
0.1,1000,exp,145,1,12,space,0.8620602999999392,None,305,1,[3.836560200000349],[3.836572100000012],12,1,145,9,973.5185975999998,,973.5045771999999,973.5185975999998,974.5186675,974.5186675,974.5186675,975.3869434000003,space,0.8620602999999392,None,975.3881888000001,975.5018702666664,975.8354215000004,975.8016891000002,975.8025971000002,975.8354215000004,975.8354215000004,975.8354215000004,979.6727284000003,305,1,[3.836560200000349],[3.836572100000012],052167,001,2024-11-13_13h45.43.780,intentional_binding,2024.2.1post4,60.9114299078454,2024-11-13 13h45.53.332322 +0530,
0.4,1000,exp,146,2,12,space,1.3456032999993113,None,947,1,[4.937795100000585],[4.937815000000228],12,2,146,7,979.6852628000001,,979.6729578999998,979.6852628000001,980.6856997999998,980.6856997999998,980.6856997999998,982.0376855,space,1.3456032999993113,None,982.038924,982.4524026666666,982.7897924000004,982.7514736999997,982.7524558999999,982.7897924000004,982.7897924000004,982.7897924000004,987.7289866000006,947,1,[4.937795100000585],[4.937815000000228],052167,001,2024-11-13_13h45.43.780,intentional_binding,2024.2.1post4,60.9114299078454,2024-11-13 13h45.53.332322 +0530,
0.1,400,unexp,147,3,12,space,2.9385452999995323,None,65,1,[2.5830206000000544],[2.5830434999998033],12,3,147,0,987.7445867000001,,987.7295330000002,987.7445867000001,988.7446857,988.7446857,988.7446857,991.6884752000001,space,2.9385452999995323,None,991.6897438999999,991.8028382666669,992.1376407000002,992.1020179000002,992.1027829999998,992.1376407000002,992.1376407000002,992.1376407000002,994.7218984000006,65,1,[2.5830206000000544],[2.5830434999998033],052167,001,2024-11-13_13h45.43.780,intentional_binding,2024.2.1post4,60.9114299078454,2024-11-13 13h45.53.332322 +0530,
0.7,1000,exp,148,4,12,space,0.4366749999999229,None,60,1,[2.5205947000004016],[2.5206120000002556],12,4,148,11,994.7361972000003,,994.7223884,994.7361972000003,995.7363273000005,995.7363273000005,995.7363273000005,996.1886036999999,space,0.4366749999999229,None,996.1898667999999,996.9030296666667,997.2366426000003,997.2013663000002,997.2021841000001,997.2366426000003,997.2366426000003,997.2366426000003,999.7579765000005,60,1,[2.5205947000004016],[2.5206120000002556],052167,001,2024-11-13_13h45.43.780,intentional_binding,2024.2.1post4,60.9114299078454,2024-11-13 13h45.53.332322 +0530,
0.1,1000,exp,149,5,12,space,2.4020832999995037,None,076,1,[4.950235600000269],[4.950246500000503],12,5,149,3,999.7693249999998,,999.7582127000001,999.7693249999998,1000.7698918000001,1000.7698918000001,1000.7698918000001,1003.1880904000004,space,2.4020832999995037,None,1003.1893744000004,1003.3032441666671,1003.6366855000001,1003.6014249000004,1003.6022089000003,1003.6366855000001,1003.6366855000001,1003.6366855000001,1008.5876321000001,076,1,[4.950235600000269],[4.950246500000503],052167,001,2024-11-13_13h45.43.780,intentional_binding,2024.2.1post4,60.9114299078454,2024-11-13 13h45.53.332322 +0530,
0.4,400,unexp,150,6,12,space,0.8845971000000645,None,95,1,[2.2519664000001285],[2.251976999999897],12,6,150,1,1008.6032474999997,,1008.5878816999998,1008.6032474999997,1009.5869786999997,1009.5869786999997,1009.6034818000003,1010.4885952,space,0.8845971000000645,None,1010.4897797999997,1010.903653666667,1011.2371170000001,1011.2014666,1011.2021820000004,1011.2371170000001,1011.2371170000001,1011.2371170000001,1013.4900271000001,95,1,[2.2519664000001285],[2.251976999999897],052167,001,2024-11-13_13h45.43.780,intentional_binding,2024.2.1post4,60.9114299078454,2024-11-13 13h45.53.332322 +0530,
0.7,1000,exp,151,7,12,space,0.8234787000001234,None,26,1,[2.8010026000001744],[2.8010255999997753],12,7,151,8,1013.5037235000004,,1013.4903094000006,1013.5037235000004,1014.5038147999999,1014.5038147999999,1014.5038147999999,1015.3396147999997,space,0.8234787000001234,None,1015.3408684999999,1016.0539155666663,1016.3871783,1016.3513453999999,1016.3521065,1016.3871783,1016.3871783,1016.3871783,1019.1895162000005,26,1,[2.8010026000001744],[2.8010255999997753],052167,001,2024-11-13_13h45.43.780,intentional_binding,2024.2.1post4,60.9114299078454,2024-11-13 13h45.53.332322 +0530,
0.1,1000,exp,152,8,12,space,0.5400674000002255,None,37,1,[1.8832480000000942],[1.8832717000004777],12,8,152,6,1019.2039958,,1019.1900299000004,1019.2039958,1020.2040395999998,1020.2040395999998,1020.2040395999998,1020.7560808000003,space,0.5400674000002255,None,1020.7573806000005,1020.8706905666666,1021.2052568000004,1021.1715263000001,1021.1723392999997,1021.2052568000004,1021.2052568000004,1021.2052568000004,1023.0897418,37,1,[1.8832480000000942],[1.8832717000004777],052167,001,2024-11-13_13h45.43.780,intentional_binding,2024.2.1post4,60.9114299078454,2024-11-13 13h45.53.332322 +0530,
0.7,400,unexp,153,9,12,space,0.3470517999994627,None,59,1,[1.9367664000001241],[1.9367881999996825],12,9,153,2,1023.1040619,,1023.0902185,1023.1040619,1024.1042142000001,1024.1042142000001,1024.1042142000001,1024.4565054999998,space,0.3470517999994627,None,1024.4577268999997,1025.1709905666664,1025.5042981000001,1025.4713992000002,1025.4721203000004,1025.5042981000001,1025.5042981000001,1025.5042981000001,1027.4423124999998,59,1,[1.9367664000001241],[1.9367881999996825],052167,001,2024-11-13_13h45.43.780,intentional_binding,2024.2.1post4,60.9114299078454,2024-11-13 13h45.53.332322 +0530,
0.4,1000,exp,154,10,12,space,1.192002599999796,None,576,1,[2.843308900000011],[2.8433310999998866],12,10,154,4,1027.4544906000006,,1027.4428008,1027.4544906000006,1028.4543696000005,1028.4543696000005,1028.4543696000005,1029.6569475000001,space,1.192002599999796,None,1029.6581986000006,1030.071181666667,1030.4116817,1030.3714713000004,1030.3723096999997,1030.4116817,1030.4116817,1030.4116817,1033.2560995999997,576,1,[2.843308900000011],[2.8433310999998866],052167,001,2024-11-13_13h45.43.780,intentional_binding,2024.2.1post4,60.9114299078454,2024-11-13 13h45.53.332322 +0530,
0.7,1000,exp,155,11,12,space,0.833613100000548,None,475 ,1,[2.8610908000000563],[2.8611008999996557],12,11,155,5,1033.2709368,,1033.2565043,1033.2709368,1034.2709850000006,1034.2709850000006,1034.2709850000006,1035.1062183,space,0.833613100000548,None,1035.107114,1035.8212415666665,1036.1461532999997,1036.1210784,1036.1216598000005,1036.1461532999997,1036.1461532999997,1036.1461532999997,1039.0080382,475 ,1,[2.8610908000000563],[2.8611008999996557],052167,001,2024-11-13_13h45.43.780,intentional_binding,2024.2.1post4,60.9114299078454,2024-11-13 13h45.53.332322 +0530,
0.1,400,unexp,156,0,13,space,2.633670200000779,None,563 ,1,[2.6842655000000377],[2.684291100000337],13,0,156,0,1039.0212020000004,,1039.0083043,1039.0212020000004,1040.0216391999998,1040.0216391999998,1040.0216391999998,1042.6574943,space,2.633670200000779,None,1042.6586794,1042.771796366667,1043.1049912000003,1043.0715169999999,1043.0723666,1043.1049912000003,1043.1049912000003,1043.1049912000003,1045.7907077000004,563 ,1,[2.6842655000000377],[2.684291100000337],052167,001,2024-11-13_13h45.43.780,intentional_binding,2024.2.1post4,60.9114299078454,2024-11-13 13h45.53.332322 +0530,
0.1,1000,exp,157,1,13,space,2.6939034999995783,None,457,1,[2.4172405999997864],[2.4172497999998086],13,1,157,6,1045.8051067000001,,1045.7912725,1045.8051067000001,1046.8053022,1046.8053022,1046.8053022,1049.5076401000001,space,2.6939034999995783,None,1049.5088664,1049.6221250666665,1049.9553686000004,1049.9218363000005,1049.9228886000005,1049.9553686000004,1049.9553686000004,1049.9553686000004,1052.3733581000001,457,1,[2.4172405999997864],[2.4172497999998086],052167,001,2024-11-13_13h45.43.780,intentional_binding,2024.2.1post4,60.9114299078454,2024-11-13 13h45.53.332322 +0530,
0.4,1000,exp,158,2,13,space,0.7229246000006242,None,445,1,[1.75112050000007],[1.751154999999926],13,2,158,10,1052.3884088,,1052.3735885,1052.3884088,1053.3888448000002,1053.3888448000002,1053.3888448000002,1054.1242475000004,space,0.7229246000006242,None,1054.1254498000003,1054.5389010666665,1054.8720331999998,1054.8413905000002,1054.8421045,1054.8720331999998,1054.8720331999998,1054.8720331999998,1056.6246480000004,445,1,[1.75112050000007],[1.751154999999926],052167,001,2024-11-13_13h45.43.780,intentional_binding,2024.2.1post4,60.9114299078454,2024-11-13 13h45.53.332322 +0530,
0.1,1000,exp,159,3,13,space,0.7388016999993852,None,569,1,[2.369104800000059],[2.3691263000000617],13,3,159,9,1056.6388797000004,,1056.6251926,1056.6388797000004,1057.6388819999997,1057.6388819999997,1057.6388819999997,1058.3909681999999,space,0.7388016999993852,None,1058.3922263999998,1058.5057897666663,1058.8390821999997,1058.8012531,1058.8019740000004,1058.8390821999997,1058.8390821999997,1058.8390821999997,1061.2094149999998,569,1,[2.369104800000059],[2.3691263000000617],052167,001,2024-11-13_13h45.43.780,intentional_binding,2024.2.1post4,60.9114299078454,2024-11-13 13h45.53.332322 +0530,
0.7,1000,exp,160,4,13,space,1.1914951999997356,None,67,1,[1.5413830999996208],[1.541404099999454],13,4,160,8,1061.2223293000002,,1061.2098968000005,1061.2223293000002,1062.2225138,1062.2225138,1062.2225138,1063.4248954,space,1.1914951999997356,None,1063.4260991000006,1064.1393882666669,1064.4726592000002,1064.4415212,1064.4444341000003,1064.4726592000002,1064.4726592000002,1064.4726592000002,1066.0153835000006,67,1,[1.5413830999996208],[1.541404099999454],052167,001,2024-11-13_13h45.43.780,intentional_binding,2024.2.1post4,60.9114299078454,2024-11-13 13h45.53.332322 +0530,
0.7,1000,exp,161,5,13,space,0.4850151000000551,None,49,1,[2.021093999999721],[2.0211158000001888],13,5,161,11,1066.0314160000003,,1066.0159147999998,1066.0314160000003,1067.0149678000002,1067.0149678000002,1067.0314640000001,1067.5166851,space,0.4850151000000551,None,1067.5179295000003,1068.2313256666664,1068.5604448,1068.5315068000004,1068.5340239000002,1068.5604448,1068.5604448,1068.5604448,1070.5827182999997,49,1,[2.021093999999721],[2.0211158000001888],052167,001,2024-11-13_13h45.43.780,intentional_binding,2024.2.1post4,60.9114299078454,2024-11-13 13h45.53.332322 +0530,
0.4,1000,exp,162,6,13,space,0.38818110000011075,None,574,1,[2.217040900000029],[2.2170621000004758],13,6,162,4,1070.5985146999997,,1070.5831739,1070.5985146999997,1071.5983591999998,1071.5983591999998,1071.5983591999998,1072.0000835000005,space,0.38818110000011075,None,1072.0013038000002,1072.406464766667,1072.7314110000002,1072.7013005000003,1072.7020245999997,1072.7314110000002,1072.7314110000002,1072.7314110000002,1074.9498890999998,574,1,[2.217040900000029],[2.2170621000004758],052167,001,2024-11-13_13h45.43.780,intentional_binding,2024.2.1post4,60.9114299078454,2024-11-13 13h45.53.332322 +0530,
0.7,400,unexp,163,7,13,space,0.9284976999997525,None,378 ,1,[4.101032200000191],[4.101066499999433],13,7,163,2,1074.9651246999997,,1074.9504785000004,1074.9651246999997,1075.9652324000003,1075.9652324000003,1075.9652324000003,1076.9006589000005,space,0.9284976999997525,None,1076.9018845000005,1077.6065965666664,1077.9402585000003,1077.9012169000002,1077.9019287000006,1077.9402585000003,1077.9402585000003,1077.9402585000003,1082.0429633999997,378 ,1,[4.101032200000191],[4.101066499999433],052167,001,2024-11-13_13h45.43.780,intentional_binding,2024.2.1post4,60.9114299078454,2024-11-13 13h45.53.332322 +0530,
0.1,1000,exp,164,8,13,space,1.1035993000004964,None,457 ,1,[4.001503299999968],[4.001527200000055],13,8,164,3,1082.056782,,1082.0434415000004,1082.056782,1083.0568202999998,1083.0568202999998,1083.0568202999998,1084.1759426000003,space,1.1035993000004964,None,1084.1771814999997,1084.2902760666664,1084.6234709000005,1084.5913373999997,1084.5920806,1084.6234709000005,1084.6234709000005,1084.6234709000005,1088.6261873999997,457 ,1,[4.001503299999968],[4.001527200000055],052167,001,2024-11-13_13h45.43.780,intentional_binding,2024.2.1post4,60.9114299078454,2024-11-13 13h45.53.332322 +0530,
0.7,1000,exp,165,9,13,space,0.8856292999998914,None,493,1,[8.994663700000274],[8.994686900000488],13,9,165,5,1088.6403516000005,,1088.6266769999997,1088.6403516000005,1089.6404696000004,1089.6404696000004,1089.6404696000004,1090.5425941999997,space,0.8856292999998914,None,1090.5438054,1091.2571410666667,1091.5903233000004,1091.5610260999997,1091.5616612999997,1091.5903233000004,1091.5903233000004,1091.5903233000004,1100.5862721999997,493,1,[8.994663700000274],[8.994686900000488],052167,001,2024-11-13_13h45.43.780,intentional_binding,2024.2.1post4,60.9114299078454,2024-11-13 13h45.53.332322 +0530,
0.4,400,unexp,166,10,13,space,0.49375489999965794,None,53,1,[4.768650699999853],[4.768663699999706],13,10,166,1,1100.5995812000006,,1100.5867775000002,1100.5995812000006,1101.5992984999998,1101.5992984999998,1101.5992984999998,1102.1017146,space,0.49375489999965794,None,1102.1031359000003,1102.5076542666663,1102.8414288,1102.8113392999999,1102.8120574999998,1102.8414288,1102.8414288,1102.8414288,1107.6110818000002,53,1,[4.768650699999853],[4.768663699999706],052167,001,2024-11-13_13h45.43.780,intentional_binding,2024.2.1post4,60.9114299078454,2024-11-13 13h45.53.332322 +0530,
0.4,1000,exp,167,11,13,space,0.4953037999994194,None,754,1,[4.453030499999841],[4.453053700000055],13,11,167,7,1107.6246586000002,,1107.6116179000005,1107.6246586000002,1108.6246347000001,1108.6246347000001,1108.6246347000001,1109.1266353000005,space,0.4953037999994194,None,1109.1278733000004,1109.5413234666664,1109.8745998999998,1109.8414103,1109.8423329000002,1109.8745998999998,1109.8745998999998,1109.8745998999998,1114.3289465000003,754,1,[4.453030499999841],[4.453053700000055],052167,001,2024-11-13_13h45.43.780,intentional_binding,2024.2.1post4,60.9114299078454,2024-11-13 13h45.53.332322 +0530,
0.1,400,unexp,168,0,14,space,1.2585517000006803,None,704,1,[6.92632390000017],[6.92635109999992],14,0,168,0,1114.3413250999997,,1114.3294278999997,1114.3413250999997,1115.3419387999998,1115.3419387999998,1115.3419387999998,1116.6104155999997,space,1.2585517000006803,None,1116.6116063000004,1116.7250143666668,1117.0583446000005,1117.0212020000004,1117.0219149999998,1117.0583446000005,1117.0583446000005,1117.0583446000005,1123.9860671000001,704,1,[6.92632390000017],[6.92635109999992],052167,001,2024-11-13_13h45.43.780,intentional_binding,2024.2.1post4,60.9114299078454,2024-11-13 13h45.53.332322 +0530,
