reward_today,future_reward,delay,thisN,thisTrialN,thisRepN,key_resp.keys,key_resp.rt,key_resp.duration,trials.thisRepN,trials.thisTrialN,trials.thisN,trials.thisIndex,thisRow.t,notes,trial.started,fixation.started,text.started,key_resp.started,fixation.stopped,trial.stopped,trials.key_resp.keys,trials.key_resp.rt,trials.key_resp.duration,participant,session,date,expName,psychopyVersion,frameRate,expStart,
49,60,89,0,0,0,l,3.1542332000099123,None,0,0,0,4,0.378598699986469,,0.36152460001176223,0.378598699986469,1.0212154000182636,1.0212154000182636,1.3879160999786109,4.251581699994858,l,3.1542332000099123,None,060477,001,2024-11-18_11h54.18.859,delay_discounting,2024.2.1post4,60.89392279506346,2024-11-18 11h54.28.963114 +0530,
15,35,13,1,1,0,t,1.4755121000343934,None,0,1,1,1,4.27115829999093,,4.258987999986857,4.27115829999093,5.2547603999846615,5.2547603999846615,5.27141779998783,6.740383299998939,t,1.4755121000343934,None,060477,001,2024-11-18_11h54.18.859,delay_discounting,2024.2.1post4,60.89392279506346,2024-11-18 11h54.28.963114 +0530,
78,80,162,2,2,0,l,0.8453109999536537,None,0,2,2,6,6.771563499991316,,6.752023299981374,6.771563499991316,7.754860699991696,7.754860699991696,7.771607099974062,8.606344199972227,l,0.8453109999536537,None,060477,001,2024-11-18_11h54.18.859,delay_discounting,2024.2.1post4,60.89392279506346,2024-11-18 11h54.28.963114 +0530,
27,50,21,3,3,0,t,1.1476790999877267,None,0,3,3,2,8.621682199998759,,8.609885999991093,8.621682199998759,9.621618999983184,9.621618999983184,9.621618999983184,10.773454700014554,t,1.1476790999877267,None,060477,001,2024-11-18_11h54.18.859,delay_discounting,2024.2.1post4,60.89392279506346,2024-11-18 11h54.28.963114 +0530,
40,55,62,4,4,0,l,1.2862637999933213,None,0,4,4,3,10.791151400015224,,10.7792119999649,10.791151400015224,11.788582400011364,11.788582400011364,11.805045999994036,13.090512999973726,l,1.2862637999933213,None,060477,001,2024-11-18_11h54.18.859,delay_discounting,2024.2.1post4,60.89392279506346,2024-11-18 11h54.28.963114 +0530,
11,30,7,5,5,0,t,0.9842500999802724,None,0,5,5,0,13.111402300011832,,13.098494299978483,13.111402300011832,14.097052700002678,14.097052700002678,14.113581000012346,15.09858729998814,t,0.9842500999802724,None,060477,001,2024-11-18_11h54.18.859,delay_discounting,2024.2.1post4,60.89392279506346,2024-11-18 11h54.28.963114 +0530,
67,75,119,6,6,0,l,2.4239802000229247,None,0,6,6,5,15.121581699990202,,15.109705000009853,15.121581699990202,16.105068999982905,16.105068999982905,16.12177809997229,18.540631900017615,l,2.4239802000229247,None,060477,001,2024-11-18_11h54.18.859,delay_discounting,2024.2.1post4,60.89392279506346,2024-11-18 11h54.28.963114 +0530,
27,50,21,7,0,1,t,0.6926032999763265,None,1,0,7,2,18.56129729998065,,18.548801199998707,18.56129729998065,19.547433600004297,19.547433600004297,19.564006500004325,20.24923449999187,t,0.6926032999763265,None,060477,001,2024-11-18_11h54.18.859,delay_discounting,2024.2.1post4,60.89392279506346,2024-11-18 11h54.28.963114 +0530,
78,80,162,8,1,1,l,0.5085553999524564,None,1,1,8,6,20.271930999995675,,20.257302000012714,20.271930999995675,21.255488599999808,21.255488599999808,21.272156699968036,21.7738956999965,l,0.5085553999524564,None,060477,001,2024-11-18_11h54.18.859,delay_discounting,2024.2.1post4,60.89392279506346,2024-11-18 11h54.28.963114 +0530,
11,30,7,9,2,1,t,0.40439039998454973,None,1,2,9,0,21.79382219997933,,21.781053700018674,21.79382219997933,22.78084039996611,22.78084039996611,22.797485299990512,23.199261099973228,t,0.40439039998454973,None,060477,001,2024-11-18_11h54.18.859,delay_discounting,2024.2.1post4,60.89392279506346,2024-11-18 11h54.28.963114 +0530,
40,55,62,10,3,1,l,0.5180126000195742,None,1,3,10,3,23.222290600009728,,23.20775279996451,23.222290600009728,24.205599799985066,24.205599799985066,24.222344600013457,24.740608699969016,l,0.5180126000195742,None,060477,001,2024-11-18_11h54.18.859,delay_discounting,2024.2.1post4,60.89392279506346,2024-11-18 11h54.28.963114 +0530,
49,60,89,11,4,1,t,0.2838226000312716,None,1,4,11,4,24.75944769999478,,24.747517700016033,24.75944769999478,25.75566590001108,25.75566590001108,25.77235089999158,26.04183080000803,t,0.2838226000312716,None,060477,001,2024-11-18_11h54.18.859,delay_discounting,2024.2.1post4,60.89392279506346,2024-11-18 11h54.28.963114 +0530,
67,75,119,12,5,1,l,1.042861099995207,None,1,5,12,5,26.06147159996908,,26.048984399996698,26.06147159996908,27.047729199985042,27.047729199985042,27.064322799968068,28.099660900013987,l,1.042861099995207,None,060477,001,2024-11-18_11h54.18.859,delay_discounting,2024.2.1post4,60.89392279506346,2024-11-18 11h54.28.963114 +0530,
15,35,13,13,6,1,t,0.9524877999792807,None,1,6,13,1,28.122435899975244,,28.107485999993514,28.122435899975244,29.105804099992383,29.105804099992383,29.122684800007846,30.074346599983983,t,0.9524877999792807,None,060477,001,2024-11-18_11h54.18.859,delay_discounting,2024.2.1post4,60.89392279506346,2024-11-18 11h54.28.963114 +0530,
78,80,162,14,0,2,t,2.5340913999825716,None,2,0,14,6,30.094313299981877,,30.081991699989885,30.094313299981877,31.08136219996959,31.08136219996959,31.097823999996763,33.632670699968,t,2.5340913999825716,None,060477,001,2024-11-18_11h54.18.859,delay_discounting,2024.2.1post4,60.89392279506346,2024-11-18 11h54.28.963114 +0530,
67,75,119,15,1,2,l,3.077935000008438,None,2,1,15,5,33.656009799975436,,33.6411338999751,33.656009799975436,34.63934920000611,34.63934920000611,34.65610189997824,37.72510370000964,l,3.077935000008438,None,060477,001,2024-11-18_11h54.18.859,delay_discounting,2024.2.1post4,60.89392279506346,2024-11-18 11h54.28.963114 +0530,
11,30,7,16,2,2,l,1.6617739000357687,None,2,2,16,0,37.745819700008724,,37.73374529997818,37.745819700008724,38.731613599986304,38.731613599986304,38.74814599996898,40.400280500005465,l,1.6617739000357687,None,060477,001,2024-11-18_11h54.18.859,delay_discounting,2024.2.1post4,60.89392279506346,2024-11-18 11h54.28.963114 +0530,
15,35,13,17,3,2,l,1.5846857000142336,None,2,3,17,1,40.4230182999745,,40.40752209996572,40.4230182999745,41.406391399970744,41.406391399970744,41.42304720001994,43.00918619998265,l,1.5846857000142336,None,060477,001,2024-11-18_11h54.18.859,delay_discounting,2024.2.1post4,60.89392279506346,2024-11-18 11h54.28.963114 +0530,
40,55,62,18,4,2,t,2.9252391000045463,None,2,4,18,3,43.028229899995495,,43.01655950001441,43.028229899995495,44.015066599997226,44.015066599997226,44.03162249998422,46.950268999964464,t,2.9252391000045463,None,060477,001,2024-11-18_11h54.18.859,delay_discounting,2024.2.1post4,60.89392279506346,2024-11-18 11h54.28.963114 +0530,
49,60,89,19,5,2,t,1.5408040000475012,None,2,5,19,4,46.97328939998988,,46.95749599998817,46.97328939998988,47.95663620001869,47.95663620001869,47.97325759998057,49.50839590001851,t,1.5408040000475012,None,060477,001,2024-11-18_11h54.18.859,delay_discounting,2024.2.1post4,60.89392279506346,2024-11-18 11h54.28.963114 +0530,
27,50,21,20,6,2,l,1.551915799966082,None,2,6,20,2,49.528325899969786,,49.51606359996367,49.528325899969786,50.51548760000151,50.51548760000151,50.53206820000196,52.08388589997776,l,1.551915799966082,None,060477,001,2024-11-18_11h54.18.859,delay_discounting,2024.2.1post4,60.89392279506346,2024-11-18 11h54.28.963114 +0530,
49,60,89,21,0,3,t,2.037723699992057,None,3,0,21,4,52.1068012000178,,52.091514399973676,52.1068012000178,53.09025710000424,53.09025710000424,53.10673790000146,55.14157109998632,t,2.037723699992057,None,060477,001,2024-11-18_11h54.18.859,delay_discounting,2024.2.1post4,60.89392279506346,2024-11-18 11h54.28.963114 +0530,
11,30,7,22,1,3,l,0.6067993000033312,None,3,1,22,0,55.160901099967305,,55.148480999981984,55.160901099967305,56.15698430000339,56.15698430000339,56.1736702999915,56.77574369998183,l,0.6067993000033312,None,060477,001,2024-11-18_11h54.18.859,delay_discounting,2024.2.1post4,60.89392279506346,2024-11-18 11h54.28.963114 +0530,
78,80,162,23,2,3,t,0.34779880003770813,None,3,2,23,6,56.79338629997801,,56.781532699998934,56.79338629997801,57.790508100006264,57.790508100006264,57.80805039999541,58.14278840000043,t,0.34779880003770813,None,060477,001,2024-11-18_11h54.18.859,delay_discounting,2024.2.1post4,60.89392279506346,2024-11-18 11h54.28.963114 +0530,
40,55,62,24,3,3,l,0.7616276000044309,None,3,3,24,3,58.16225489997305,,58.14989479997894,58.16225489997305,59.149158900021575,59.149158900021575,59.16576469998108,59.91782999999123,l,0.7616276000044309,None,060477,001,2024-11-18_11h54.18.859,delay_discounting,2024.2.1post4,60.89392279506346,2024-11-18 11h54.28.963114 +0530,
27,50,21,25,4,3,l,0.2850596999633126,None,3,4,25,2,59.9405107999919,,59.926440400013234,59.9405107999919,60.92399079998722,60.92399079998722,60.940355199971236,61.22560840001097,l,0.2850596999633126,None,060477,001,2024-11-18_11h54.18.859,delay_discounting,2024.2.1post4,60.89392279506346,2024-11-18 11h54.28.963114 +0530,
15,35,13,26,5,3,l,0.371798999956809,None,3,5,26,1,61.24489649996394,,61.232886900019366,61.24489649996394,62.2326330000069,62.2326330000069,62.24924189999001,62.617846700013615,l,0.371798999956809,None,060477,001,2024-11-18_11h54.18.859,delay_discounting,2024.2.1post4,60.89392279506346,2024-11-18 11h54.28.963114 +0530,
67,75,119,27,6,3,l,0.33121350000146776,None,3,6,27,5,62.64068929996574,,62.625572699995246,62.64068929996574,63.62405069998931,63.62405069998931,63.64218109997455,63.959409400005825,l,0.33121350000146776,None,060477,001,2024-11-18_11h54.18.859,delay_discounting,2024.2.1post4,60.89392279506346,2024-11-18 11h54.28.963114 +0530,
27,50,21,28,0,4,t,0.6778742000460625,None,4,0,28,2,63.97850359999575,,63.96610239997972,63.97850359999575,64.96609930001432,64.96609930001432,64.9826686999877,65.65122339996742,t,0.6778742000460625,None,060477,001,2024-11-18_11h54.18.859,delay_discounting,2024.2.1post4,60.89392279506346,2024-11-18 11h54.28.963114 +0530,
67,75,119,29,1,4,t,0.6523844000184909,None,4,1,29,5,65.67415239999536,,65.6587854999816,65.67415239999536,66.6574540999718,66.6574540999718,66.67429429996992,67.32681860000594,t,0.6523844000184909,None,060477,001,2024-11-18_11h54.18.859,delay_discounting,2024.2.1post4,60.89392279506346,2024-11-18 11h54.28.963114 +0530,
15,35,13,30,2,4,t,0.9955398000311106,None,4,2,30,1,67.34525929996744,,67.33353930001613,67.34525929996744,68.33293949998915,68.33293949998915,68.34950890002074,69.33488959999522,t,0.9955398000311106,None,060477,001,2024-11-18_11h54.18.859,delay_discounting,2024.2.1post4,60.89392279506346,2024-11-18 11h54.28.963114 +0530,
49,60,89,31,3,4,l,0.5911450000130571,None,4,3,31,4,69.35766659997171,,69.34224949998315,69.35766659997171,70.34111450001365,70.34111450001365,70.3577426999691,70.94313759997021,l,0.5911450000130571,None,060477,001,2024-11-18_11h54.18.859,delay_discounting,2024.2.1post4,60.89392279506346,2024-11-18 11h54.28.963114 +0530,
78,80,162,32,4,4,t,0.5035750999813899,None,4,4,32,6,70.96340790000977,,70.95038039999781,70.96340790000977,71.94978670001728,71.94978670001728,71.96637400001055,72.46824349998496,t,0.5035750999813899,None,060477,001,2024-11-18_11h54.18.859,delay_discounting,2024.2.1post4,60.89392279506346,2024-11-18 11h54.28.963114 +0530,
40,55,62,33,5,4,t,0.41234959999565035,None,4,5,33,3,72.49187889997847,,72.47599259996787,72.49187889997847,73.47446990001481,73.47446990001481,73.49109630001476,73.8929119000095,t,0.41234959999565035,None,060477,001,2024-11-18_11h54.18.859,delay_discounting,2024.2.1post4,60.89392279506346,2024-11-18 11h54.28.963114 +0530,
11,30,7,34,6,4,l,0.30465929995989427,None,4,6,34,0,73.91253049997613,,73.90001400001347,73.91253049997613,74.89988340000855,74.89988340000855,74.91653609997593,75.21838550001848,l,0.30465929995989427,None,060477,001,2024-11-18_11h54.18.859,delay_discounting,2024.2.1post4,60.89392279506346,2024-11-18 11h54.28.963114 +0530,
11,30,7,35,0,5,l,0.7289197000209242,None,5,0,35,0,75.2330171999638,,75.21875409997301,75.2330171999638,76.23318679997465,76.23318679997465,76.23318679997465,76.96829839999555,l,0.7289197000209242,None,060477,001,2024-11-18_11h54.18.859,delay_discounting,2024.2.1post4,60.89392279506346,2024-11-18 11h54.28.963114 +0530,
78,80,162,36,1,5,t,0.11740839999401942,None,5,1,36,6,76.9912829999812,,76.97650150000118,76.9912829999812,77.97447209997335,77.97447209997335,77.99121020000894,78.10941219999222,t,0.11740839999401942,None,060477,001,2024-11-18_11h54.18.859,delay_discounting,2024.2.1post4,60.89392279506346,2024-11-18 11h54.28.963114 +0530,
40,55,62,37,2,5,t,0.14705799997318536,None,5,2,37,3,78.1273517999798,,78.11579800001346,78.1273517999798,79.12455249996856,79.12455249996856,79.14123569999356,79.27642150002066,t,0.14705799997318536,None,060477,001,2024-11-18_11h54.18.859,delay_discounting,2024.2.1post4,60.89392279506346,2024-11-18 11h54.28.963114 +0530,
27,50,21,38,3,5,l,0.13153969997074455,None,5,3,38,2,79.29450339998584,,79.28246969997417,79.29450339998584,80.29127420001896,80.29127420001896,80.30791319999844,80.42596369999228,l,0.13153969997074455,None,060477,001,2024-11-18_11h54.18.859,delay_discounting,2024.2.1post4,60.89392279506346,2024-11-18 11h54.28.963114 +0530,
15,35,13,39,4,5,t,0.35820600000442937,None,5,4,39,1,80.4429228999652,,80.430968199973,80.4429228999652,81.44129119999707,81.44129119999707,81.45797649997985,81.80974110000534,t,0.35820600000442937,None,060477,001,2024-11-18_11h54.18.859,delay_discounting,2024.2.1post4,60.89392279506346,2024-11-18 11h54.28.963114 +0530,
67,75,119,40,5,5,l,0.6778044999809936,None,5,5,40,5,81.8277945999871,,81.81623429997126,81.8277945999871,82.82469879998825,82.82469879998825,82.8413572999998,83.51027570001315,l,0.6778044999809936,None,060477,001,2024-11-18_11h54.18.859,delay_discounting,2024.2.1post4,60.89392279506346,2024-11-18 11h54.28.963114 +0530,
49,60,89,41,6,5,t,0.46440210001310334,None,5,6,41,4,83.5302163999877,,83.51797749998514,83.5302163999877,84.51700180000626,84.51700180000626,84.53360099997371,84.98576449998654,t,0.46440210001310334,None,060477,001,2024-11-18_11h54.18.859,delay_discounting,2024.2.1post4,60.89392279506346,2024-11-18 11h54.28.963114 +0530,
15,35,13,42,0,6,l,0.9576222999603488,None,6,0,42,1,85.00817360001383,,84.99477649998153,85.00817360001383,85.99165729997912,85.99165729997912,86.00824399996782,86.9596673999913,l,0.9576222999603488,None,060477,001,2024-11-18_11h54.18.859,delay_discounting,2024.2.1post4,60.89392279506346,2024-11-18 11h54.28.963114 +0530,
11,30,7,43,1,6,l,0.72173190000467,None,6,1,43,0,86.97634860000107,,86.9642289999756,86.97634860000107,87.97498489997815,87.97498489997815,87.99155639996752,88.71021619997919,l,0.72173190000467,None,060477,001,2024-11-18_11h54.18.859,delay_discounting,2024.2.1post4,60.89392279506346,2024-11-18 11h54.28.963114 +0530,
40,55,62,44,2,6,t,0.5774712999700569,None,6,2,44,3,88.73010929999873,,88.71753149997676,88.73010929999873,89.71716060000472,89.71716060000472,89.73369550000643,90.30212389997905,t,0.5774712999700569,None,060477,001,2024-11-18_11h54.18.859,delay_discounting,2024.2.1post4,60.89392279506346,2024-11-18 11h54.28.963114 +0530,
67,75,119,45,3,6,t,0.8753522000042722,None,6,3,45,5,90.32506569998804,,90.30602139997063,90.32506569998804,91.30849550000858,91.30849550000858,91.32511400000658,92.19311340001877,t,0.8753522000042722,None,060477,001,2024-11-18_11h54.18.859,delay_discounting,2024.2.1post4,60.89392279506346,2024-11-18 11h54.28.963114 +0530,
27,50,21,46,4,6,l,0.2906582000432536,None,6,4,46,2,92.21004580002045,,92.1981985999737,92.21004580002045,93.20874239999102,93.20874239999102,93.22541640000418,93.51008390000788,l,0.2906582000432536,None,060477,001,2024-11-18_11h54.18.859,delay_discounting,2024.2.1post4,60.89392279506346,2024-11-18 11h54.28.963114 +0530,
78,80,162,47,5,6,t,0.4817563999677077,None,6,5,47,6,93.53090359998168,,93.51894959999481,93.53090359998168,94.51741959998617,94.51741959998617,94.53394659998594,95.00234740000451,t,0.4817563999677077,None,060477,001,2024-11-18_11h54.18.859,delay_discounting,2024.2.1post4,60.89392279506346,2024-11-18 11h54.28.963114 +0530,
49,60,89,48,6,6,l,0.27490299998316914,None,6,6,48,4,95.02530649997061,,95.0072362999781,95.02530649997061,96.00869549997151,96.00869549997151,96.02545590000227,96.29415069997776,l,0.27490299998316914,None,060477,001,2024-11-18_11h54.18.859,delay_discounting,2024.2.1post4,60.89392279506346,2024-11-18 11h54.28.963114 +0530,
27,50,21,49,0,7,t,1.1446683999965899,None,7,0,49,2,96.31057480000891,,96.29891509999288,96.31057480000891,97.30864629999269,97.30864629999269,97.32540400000289,98.46078289998695,t,1.1446683999965899,None,060477,001,2024-11-18_11h54.18.859,delay_discounting,2024.2.1post4,60.89392279506346,2024-11-18 11h54.28.963114 +0530,
67,75,119,50,1,7,l,0.5643533999682404,None,7,1,50,5,98.48107679997338,,98.46884230000433,98.48107679997338,99.46767919999547,99.46767919999547,99.4841837999993,100.03537190001225,l,0.5643533999682404,None,060477,001,2024-11-18_11h54.18.859,delay_discounting,2024.2.1post4,60.89392279506346,2024-11-18 11h54.28.963114 +0530,
11,30,7,51,2,7,t,0.507365999976173,None,7,2,51,0,100.05884229997173,,100.04010819998803,100.05884229997173,101.042232399981,101.042232399981,101.05895289999899,101.56018969998695,t,0.507365999976173,None,060477,001,2024-11-18_11h54.18.859,delay_discounting,2024.2.1post4,60.89392279506346,2024-11-18 11h54.28.963114 +0530,
15,35,13,52,3,7,t,0.8371051999856718,None,7,3,52,1,101.57755479996558,,101.56570410000859,101.57755479996558,102.55915380001534,102.55915380001534,102.59248350001872,103.41049400001066,t,0.8371051999856718,None,060477,001,2024-11-18_11h54.18.859,delay_discounting,2024.2.1post4,60.89392279506346,2024-11-18 11h54.28.963114 +0530,
49,60,89,53,4,7,t,2.755891699984204,None,7,4,53,4,103.42848599998979,,103.41590889997315,103.42848599998979,104.42585900000995,104.42585900000995,104.44260670000222,107.1946561000077,t,2.755891699984204,None,060477,001,2024-11-18_11h54.18.859,delay_discounting,2024.2.1post4,60.89392279506346,2024-11-18 11h54.28.963114 +0530,
40,55,62,54,5,7,t,0.7828533000429161,None,7,5,54,3,107.21443250001175,,107.20159259997308,107.21443250001175,108.20137039996916,108.20137039996916,108.21797449997393,108.98707289999584,t,0.7828533000429161,None,060477,001,2024-11-18_11h54.18.859,delay_discounting,2024.2.1post4,60.89392279506346,2024-11-18 11h54.28.963114 +0530,
78,80,162,55,6,7,t,0.6176145999925211,None,7,6,55,6,109.0094064999721,,108.99537039996358,109.0094064999721,109.99276499997359,109.99276499997359,110.00950939999893,110.62772679998307,t,0.6176145999925211,None,060477,001,2024-11-18_11h54.18.859,delay_discounting,2024.2.1post4,60.89392279506346,2024-11-18 11h54.28.963114 +0530,
78,80,162,56,0,8,l,0.2324500000104308,None,8,0,56,6,110.64283109997632,,110.62808910000604,110.64283109997632,111.64301190001424,111.64301190001424,111.64301190001424,111.87875039997743,l,0.2324500000104308,None,060477,001,2024-11-18_11h54.18.859,delay_discounting,2024.2.1post4,60.89392279506346,2024-11-18 11h54.28.963114 +0530,
49,60,89,57,1,8,l,1.04322890000185,None,8,1,57,4,111.89909590000752,,111.88655900000595,111.89909590000752,112.88493339996785,112.88493339996785,112.90152070001932,113.9368650999968,l,1.04322890000185,None,060477,001,2024-11-18_11h54.18.859,delay_discounting,2024.2.1post4,60.89392279506346,2024-11-18 11h54.28.963114 +0530,
27,50,21,58,2,8,l,1.591751000029035,None,8,2,58,2,113.95961179997539,,113.9442908000201,113.95961179997539,114.9430374999647,114.9430374999647,114.95970050001051,116.54506570001831,l,1.591751000029035,None,060477,001,2024-11-18_11h54.18.859,delay_discounting,2024.2.1post4,60.89392279506346,2024-11-18 11h54.28.963114 +0530,
15,35,13,59,3,8,l,1.6709874999942258,None,8,3,59,1,116.56592749996344,,116.55320600001141,116.56592749996344,117.55190169997513,117.55190169997513,117.56839759997092,119.23726379999425,l,1.6709874999942258,None,060477,001,2024-11-18_11h54.18.859,delay_discounting,2024.2.1post4,60.89392279506346,2024-11-18 11h54.28.963114 +0530,
67,75,119,60,4,8,l,0.8606973999994807,None,8,4,60,5,119.25967599998694,,119.24454069999047,119.25967599998694,120.24328559997957,120.24328559997957,120.2599157000077,121.11278119997587,l,0.8606973999994807,None,060477,001,2024-11-18_11h54.18.859,delay_discounting,2024.2.1post4,60.89392279506346,2024-11-18 11h54.28.963114 +0530,
40,55,62,61,5,8,l,0.555930599977728,None,8,5,61,3,121.13397839997197,,121.11881060001906,121.13397839997197,122.11868389998563,122.11868389998563,122.13527189998422,122.68692469998496,l,0.555930599977728,None,060477,001,2024-11-18_11h54.18.859,delay_discounting,2024.2.1post4,60.89392279506346,2024-11-18 11h54.28.963114 +0530,
11,30,7,62,6,8,l,0.8791799999889918,None,8,6,62,0,122.71002649998991,,122.69481489999453,122.71002649998991,123.69342849997338,123.69342849997338,123.71006589999888,124.57847710000351,l,0.8791799999889918,None,060477,001,2024-11-18_11h54.18.859,delay_discounting,2024.2.1post4,60.89392279506346,2024-11-18 11h54.28.963114 +0530,
40,55,62,63,0,9,t,0.5261214000056498,None,9,0,63,3,124.59837099997094,,124.58535979996668,124.59837099997094,125.58552099997178,125.58552099997178,125.60213590000058,126.12086670001736,t,0.5261214000056498,None,060477,001,2024-11-18_11h54.18.859,delay_discounting,2024.2.1post4,60.89392279506346,2024-11-18 11h54.28.963114 +0530,
49,60,89,64,1,9,t,0.5663019000203349,None,9,1,64,4,126.14339230000041,,126.12856829998782,126.14339230000041,127.12697440001648,127.12697440001648,127.14363810000941,127.69613699999172,t,0.5663019000203349,None,060477,001,2024-11-18_11h54.18.859,delay_discounting,2024.2.1post4,60.89392279506346,2024-11-18 11h54.28.963114 +0530,
67,75,119,65,2,9,t,0.3654437999939546,None,9,2,65,5,127.71519000001717,,127.7028888000059,127.71519000001717,128.70230110001285,128.70230110001285,128.71886059996905,129.0700936000212,t,0.3654437999939546,None,060477,001,2024-11-18_11h54.18.859,delay_discounting,2024.2.1post4,60.89392279506346,2024-11-18 11h54.28.963114 +0530,
15,35,13,66,3,9,t,0.5169982999796048,None,9,3,66,1,129.09365240001353,,129.07418890000554,129.09365240001353,130.0768738000188,130.0768738000188,130.09358119999524,130.5954986999859,t,0.5169982999796048,None,060477,001,2024-11-18_11h54.18.859,delay_discounting,2024.2.1post4,60.89392279506346,2024-11-18 11h54.28.963114 +0530,
27,50,21,67,4,9,t,0.3068630999769084,None,9,4,67,2,130.61190079996595,,130.6001435999642,130.61190079996595,131.61038440000266,131.61038440000266,131.62714240001515,131.9292869999772,t,0.3068630999769084,None,060477,001,2024-11-18_11h54.18.859,delay_discounting,2024.2.1post4,60.89392279506346,2024-11-18 11h54.28.963114 +0530,
78,80,162,68,5,9,t,1.5458906999556348,None,9,5,68,6,131.95010369998636,,131.93797179998364,131.95010369998636,132.93594110000413,132.93594110000413,132.95241379999788,134.48785580002004,t,1.5458906999556348,None,060477,001,2024-11-18_11h54.18.859,delay_discounting,2024.2.1post4,60.89392279506346,2024-11-18 11h54.28.963114 +0530,
11,30,7,69,6,9,l,1.4523665999877267,None,9,6,69,0,134.51053989998763,,134.4963451999938,134.51053989998763,135.49417289998382,135.49417289998382,135.5106087999884,136.96255379996728,l,1.4523665999877267,None,060477,001,2024-11-18_11h54.18.859,delay_discounting,2024.2.1post4,60.89392279506346,2024-11-18 11h54.28.963114 +0530,
49,60,89,70,0,10,l,0.3857756999786943,None,10,0,70,4,136.9822474999819,,136.96997109998483,136.9822474999819,137.96938369999407,137.96938369999407,137.98593779996736,138.37094270001398,l,0.3857756999786943,None,060477,001,2024-11-18_11h54.18.859,delay_discounting,2024.2.1post4,60.89392279506346,2024-11-18 11h54.28.963114 +0530,
40,55,62,71,1,10,l,0.40355709998402745,None,10,1,71,3,138.39402339997469,,138.37977100000717,138.39402339997469,139.37749250000343,139.37749250000343,139.39414140000008,139.79513470001984,l,0.40355709998402745,None,060477,001,2024-11-18_11h54.18.859,delay_discounting,2024.2.1post4,60.89392279506346,2024-11-18 11h54.28.963114 +0530,
67,75,119,72,2,10,t,0.4644803999690339,None,10,2,72,5,139.8105303000193,,139.79867410002043,139.8105303000193,140.79415359999985,140.79415359999985,140.81080979999388,141.2628204000066,t,0.4644803999690339,None,060477,001,2024-11-18_11h54.18.859,delay_discounting,2024.2.1post4,60.89392279506346,2024-11-18 11h54.28.963114 +0530,
15,35,13,73,3,10,t,0.28766960004577413,None,10,3,73,1,141.28217969997786,,141.26977529999567,141.28217969997786,142.26958570000716,142.26958570000716,142.28618459997233,142.57110349996947,t,0.28766960004577413,None,060477,001,2024-11-18_11h54.18.859,delay_discounting,2024.2.1post4,60.89392279506346,2024-11-18 11h54.28.963114 +0530,
78,80,162,74,4,10,t,0.0618112999945879,None,10,4,74,6,142.59431489999406,,142.57952069997555,142.59431489999406,143.57759870000882,143.57759870000882,143.59426629997324,143.64648479997413,t,0.0618112999945879,None,060477,001,2024-11-18_11h54.18.859,delay_discounting,2024.2.1post4,60.89392279506346,2024-11-18 11h54.28.963114 +0530,
27,50,21,75,5,10,t,0.5738100999733433,None,10,5,75,2,143.6659753000131,,143.65325789997587,143.6659753000131,144.65301499998895,144.65301499998895,144.6696030999883,145.23792009998579,t,0.5738100999733433,None,060477,001,2024-11-18_11h54.18.859,delay_discounting,2024.2.1post4,60.89392279506346,2024-11-18 11h54.28.963114 +0530,
11,30,7,76,6,10,t,0.04542500001844019,None,10,6,76,0,145.26099310000427,,145.24631429999135,145.26099310000427,146.24441569996998,146.24441569996998,146.2610404000152,146.29658319998998,t,0.04542500001844019,None,060477,001,2024-11-18_11h54.18.859,delay_discounting,2024.2.1post4,60.89392279506346,2024-11-18 11h54.28.963114 +0530,
15,35,13,77,0,11,t,0.004484899982344359,None,11,0,77,1,146.31624409998767,,146.3033609999693,146.31624409998767,147.30317410000134,147.30317410000134,147.31976310000755,147.32157879997976,t,0.004484899982344359,None,060477,001,2024-11-18_11h54.18.859,delay_discounting,2024.2.1post4,60.89392279506346,2024-11-18 11h54.28.963114 +0530,
78,80,162,78,1,11,t,1.1498668999993242,None,11,1,78,6,147.34464349999325,,147.33004799997434,147.34464349999325,148.32789750001393,148.32789750001393,148.34455609996803,149.47988679999253,t,1.1498668999993242,None,060477,001,2024-11-18_11h54.18.859,delay_discounting,2024.2.1post4,60.89392279506346,2024-11-18 11h54.28.963114 +0530,
11,30,7,79,2,11,t,0.33283879997907206,None,11,2,79,0,149.4955845999648,,149.48393789998954,149.4955845999648,150.49464879999869,150.49464879999869,150.49464879999869,150.83022780000465,t,0.33283879997907206,None,060477,001,2024-11-18_11h54.18.859,delay_discounting,2024.2.1post4,60.89392279506346,2024-11-18 11h54.28.963114 +0530,
40,55,62,80,3,11,t,0.5513886999688111,None,11,3,80,3,150.85238980001304,,150.83947020000778,150.85238980001304,151.8367066999781,151.8367066999781,151.8533749000053,152.4051490999991,t,0.5513886999688111,None,060477,001,2024-11-18_11h54.18.859,delay_discounting,2024.2.1post4,60.89392279506346,2024-11-18 11h54.28.963114 +0530,
49,60,89,81,4,11,t,0.2602725999895483,None,11,4,81,4,152.42804189998424,,152.41310090001207,152.42804189998424,153.41139849997126,153.41139849997126,153.42811189999338,153.68010990001494,t,0.2602725999895483,None,060477,001,2024-11-18_11h54.18.859,delay_discounting,2024.2.1post4,60.89392279506346,2024-11-18 11h54.28.963114 +0530,
67,75,119,82,5,11,l,0.6587167999823578,None,11,5,82,5,153.70020979997935,,153.68802150001284,153.70020979997935,154.68686780001735,154.68686780001735,154.70341309998184,155.3552574000205,l,0.6587167999823578,None,060477,001,2024-11-18_11h54.18.859,delay_discounting,2024.2.1post4,60.89392279506346,2024-11-18 11h54.28.963114 +0530,
27,50,21,83,6,11,t,2.480212999973446,None,11,6,83,2,155.37819219997618,,155.36285829998087,155.37819219997618,156.36156789999222,156.36156789999222,156.37822800001595,158.84693599998718,t,2.480212999973446,None,060477,001,2024-11-18_11h54.18.859,delay_discounting,2024.2.1post4,60.89392279506346,2024-11-18 11h54.28.963114 +0530,
67,75,119,84,0,12,l,0.3618846000172198,None,12,0,84,5,158.86690979998093,,158.8543569999747,158.86690979998093,159.85374669998419,159.85374669998419,159.87035539996577,160.22202970000217,l,0.3618846000172198,None,060477,001,2024-11-18_11h54.18.859,delay_discounting,2024.2.1post4,60.89392279506346,2024-11-18 11h54.28.963114 +0530,
27,50,21,85,1,12,l,0.974626499984879,None,12,1,85,2,160.2449942000094,,160.22946090000914,160.2449942000094,161.22850289999042,161.22850289999042,161.24512229999527,162.21393520000856,l,0.974626499984879,None,060477,001,2024-11-18_11h54.18.859,delay_discounting,2024.2.1post4,60.89392279506346,2024-11-18 11h54.28.963114 +0530,
15,35,13,86,2,12,t,0.2825656999484636,None,12,2,86,1,162.23343339998974,,162.22127209999599,162.23343339998974,163.22052669996629,163.22052669996629,163.23713339999085,163.50573889998486,t,0.2825656999484636,None,060477,001,2024-11-18_11h54.18.859,delay_discounting,2024.2.1post4,60.89392279506346,2024-11-18 11h54.28.963114 +0530,
40,55,62,87,3,12,t,0.34254859999055043,None,12,3,87,3,163.52852980000898,,163.5131415000069,163.52852980000898,164.5119568000082,164.5119568000082,164.52855320001254,164.86437809997005,t,0.34254859999055043,None,060477,001,2024-11-18_11h54.18.859,delay_discounting,2024.2.1post4,60.89392279506346,2024-11-18 11h54.28.963114 +0530,
49,60,89,88,4,12,t,0.787237600015942,None,12,4,88,4,164.88489509996725,,164.8721959000104,164.88489509996725,165.870659600012,165.870659600012,165.88724000001093,166.67208029999165,t,0.787237600015942,None,060477,001,2024-11-18_11h54.18.859,delay_discounting,2024.2.1post4,60.89392279506346,2024-11-18 11h54.28.963114 +0530,
78,80,162,89,5,12,l,0.5293855000054464,None,12,5,89,6,166.69538499996997,,166.68043050001143,166.69538499996997,167.67857139999978,167.67857139999978,167.6952142000082,168.21317770000314,l,0.5293855000054464,None,060477,001,2024-11-18_11h54.18.859,delay_discounting,2024.2.1post4,60.89392279506346,2024-11-18 11h54.28.963114 +0530,
11,30,7,90,6,12,l,0.6888755999971181,None,12,6,90,0,168.22906430001603,,168.21774629998254,168.22906430001603,169.22864669997944,169.22864669997944,169.22864669997944,169.930618399987,l,0.6888755999971181,None,060477,001,2024-11-18_11h54.18.859,delay_discounting,2024.2.1post4,60.89392279506346,2024-11-18 11h54.28.963114 +0530,
49,60,89,91,0,13,l,0.4668573999661021,None,13,0,91,4,169.94875209999736,,169.93693680001888,169.94875209999736,170.9454632999841,170.9454632999841,170.96212959999684,171.41560309997294,l,0.4668573999661021,None,060477,001,2024-11-18_11h54.18.859,delay_discounting,2024.2.1post4,60.89392279506346,2024-11-18 11h54.28.963114 +0530,
40,55,62,92,1,13,l,0.20635660004336387,None,13,1,92,3,171.43589839997003,,171.42383260000497,171.43589839997003,172.42094039998483,172.42094039998483,172.43756019999273,172.63914400001522,l,0.20635660004336387,None,060477,001,2024-11-18_11h54.18.859,delay_discounting,2024.2.1post4,60.89392279506346,2024-11-18 11h54.28.963114 +0530,
11,30,7,93,2,13,t,0.07764050003606826,None,13,2,93,0,172.662290200009,,172.64697840000736,172.662290200009,173.64570079999976,173.64570079999976,173.66226429998642,173.73117699997965,t,0.07764050003606826,None,060477,001,2024-11-18_11h54.18.859,delay_discounting,2024.2.1post4,60.89392279506346,2024-11-18 11h54.28.963114 +0530,
15,35,13,94,3,13,t,0.017991399974562228,None,13,3,94,1,173.75059189996682,,173.73825270001544,173.75059189996682,174.73773539997637,174.73773539997637,174.75432090001414,174.77277039998444,t,0.017991399974562228,None,060477,001,2024-11-18_11h54.18.859,delay_discounting,2024.2.1post4,60.89392279506346,2024-11-18 11h54.28.963114 +0530,
27,50,21,95,4,13,t,0.19777269999030977,None,13,4,95,2,174.79576780000934,,174.77995230001397,174.79576780000934,175.77913939999416,175.77913939999416,175.7957757000113,175.9812418000074,t,0.19777269999030977,None,060477,001,2024-11-18_11h54.18.859,delay_discounting,2024.2.1post4,60.89392279506346,2024-11-18 11h54.28.963114 +0530,
67,75,119,96,5,13,t,0.0259387000114657,None,13,5,96,5,176.00084669998614,,175.98865050001768,176.00084669998614,176.9878343999735,176.9878343999735,177.0044198000105,177.0226232999703,t,0.0259387000114657,None,060477,001,2024-11-18_11h54.18.859,delay_discounting,2024.2.1post4,60.89392279506346,2024-11-18 11h54.28.963114 +0530,
78,80,162,97,6,13,t,0.1079596999916248,None,13,6,97,6,177.04588059999514,,177.0302080999827,177.04588059999514,178.02933629998006,178.02933629998006,178.0459621999762,178.14783739997074,t,0.1079596999916248,None,060477,001,2024-11-18_11h54.18.859,delay_discounting,2024.2.1post4,60.89392279506346,2024-11-18 11h54.28.963114 +0530,
78,80,162,98,0,14,t,0.11044600000604987,None,14,0,98,6,178.16260099998908,,178.1481903999811,178.16260099998908,179.16261319996556,179.16261319996556,179.16261319996556,179.28137009998318,t,0.11044600000604987,None,060477,001,2024-11-18_11h54.18.859,delay_discounting,2024.2.1post4,60.89392279506346,2024-11-18 11h54.28.963114 +0530,
11,30,7,99,1,14,t,0.35494240000844,None,14,1,99,0,179.3015546000097,,179.28853530000197,179.3015546000097,180.2880170000135,180.2880170000135,180.30455000000075,180.65639259997988,t,0.35494240000844,None,060477,001,2024-11-18_11h54.18.859,delay_discounting,2024.2.1post4,60.89392279506346,2024-11-18 11h54.28.963114 +0530,
40,55,62,100,2,14,t,0.11187830002745613,None,14,2,100,3,180.67946179996943,,180.6637002999778,180.67946179996943,181.66271990002133,181.66271990002133,181.6793622999685,181.78122419997817,t,0.11187830002745613,None,060477,001,2024-11-18_11h54.18.859,delay_discounting,2024.2.1post4,60.89392279506346,2024-11-18 11h54.28.963114 +0530,
15,35,13,101,3,14,t,0.18874299997696653,None,14,3,101,1,181.8012528999825,,181.78856199997244,181.8012528999825,182.7880500999745,182.7880500999745,182.8046905999654,182.99019380001118,t,0.18874299997696653,None,060477,001,2024-11-18_11h54.18.859,delay_discounting,2024.2.1post4,60.89392279506346,2024-11-18 11h54.28.963114 +0530,
27,50,21,102,4,14,t,0.6254193999920972,None,14,4,102,2,183.0127031999873,,182.9977265999769,183.0127031999873,183.99598239996703,183.99598239996703,184.01291310001398,184.63170699996408,t,0.6254193999920972,None,060477,001,2024-11-18_11h54.18.859,delay_discounting,2024.2.1post4,60.89392279506346,2024-11-18 11h54.28.963114 +0530,
49,60,89,103,5,14,t,0.2664102000417188,None,14,5,103,4,184.6515685999766,,184.6388239999651,184.6515685999766,185.638215199986,185.638215199986,185.65479110000888,185.90685560001293,t,0.2664102000417188,None,060477,001,2024-11-18_11h54.18.859,delay_discounting,2024.2.1post4,60.89392279506346,2024-11-18 11h54.28.963114 +0530,
67,75,119,104,6,14,t,0.3753951999824494,None,14,6,104,5,185.92941779998364,,185.91453890001867,185.92941779998364,186.91297469998244,186.91297469998244,186.92966889997479,187.2984812000068,t,0.3753951999824494,None,060477,001,2024-11-18_11h54.18.859,delay_discounting,2024.2.1post4,60.89392279506346,2024-11-18 11h54.28.963114 +0530,
