thisN,thisTrialN,thisRepN,mouse.x,mouse.y,mouse.leftButton,mouse.midButton,mouse.rightButton,mouse.time,mouse.clicked_name,trials.thisRepN,trials.thisTrialN,trials.thisN,trials.thisIndex,thisRow.t,notes,num_distr,trial.started,fixtion.started,target.started,mouse.started,trial.stopped,trials.mouse.x,trials.mouse.y,trials.mouse.leftButton,trials.mouse.midButton,trials.mouse.rightButton,trials.mouse.time,trials.mouse.clicked_name,participant,session,date,expName,psychopyVersion,frameRate,expStart,
0,0,0,[0.16166666666666665],[-0.013333333333333334],[1],[0],[0],[3.575363300000163],['target'],0,0,0,0,0.06361940000010691,,10,0.04585659999997915,0.06361940000010691,0.06361940000010691,0.04558769999994183,3.621636200000239,[0.16166666666666665],[-0.013333333333333334],[1],[0],[0],[3.575363300000163],['target'],887105,001,2024-10-10_14h07.04.051,visual search,2024.2.1post4,59.996424213172304,2024-10-10 14h07.10.875101 +0530,
1,0,1,[0.43833333333333335],[-0.11166666666666666],[1],[0],[0],[3.888457500000186],['target'],1,0,1,0,3.6647882999998274,,10,3.649137799999835,3.6647882999998274,3.6647882999998274,0.02728530000013052,7.53798780000011,[0.43833333333333335],[-0.11166666666666666],[1],[0],[0],[3.888457500000186],['target'],887105,001,2024-10-10_14h07.04.051,visual search,2024.2.1post4,59.996424213172304,2024-10-10 14h07.10.875101 +0530,
2,0,2,[-0.47333333333333333],[0.48833333333333334],[1],[0],[0],[4.954121799999939],['target'],2,0,2,0,7.581049000000121,,10,7.566134400000237,7.581049000000121,7.581049000000121,0.027928399999836984,12.520635999999968,[-0.47333333333333333],[0.48833333333333334],[1],[0],[0],[4.954121799999939],['target'],887105,001,2024-10-10_14h07.04.051,visual search,2024.2.1post4,59.996424213172304,2024-10-10 14h07.10.875101 +0530,
3,0,3,[-0.12166666666666667],[0.13833333333333334],[1],[0],[0],[1.60430580000002],['target'],3,0,3,0,12.54865790000008,,5,12.533815699999877,12.54865790000008,12.54865790000008,0.01301259999991089,14.138513499999817,[-0.12166666666666667],[0.13833333333333334],[1],[0],[0],[1.60430580000002],['target'],887105,001,2024-10-10_14h07.04.051,visual search,2024.2.1post4,59.996424213172304,2024-10-10 14h07.10.875101 +0530,
4,0,4,[-0.205],[0.12333333333333334],[1],[0],[0],[1.297907099999975],['target'],4,0,4,0,14.190607499999942,,10,14.173003199999812,14.190607499999942,14.190607499999942,0.034356600000137405,15.471346999999923,[-0.205],[0.12333333333333334],[1],[0],[0],[1.297907099999975],['target'],887105,001,2024-10-10_14h07.04.051,visual search,2024.2.1post4,59.996424213172304,2024-10-10 14h07.10.875101 +0530,
5,0,5,[-0.03666666666666667],[-0.06666666666666667],[1],[0],[0],[1.7248702999995658],['target'],5,0,5,0,15.510895799999844,,10,15.496457399999827,15.510895799999844,15.510895799999844,0.024946600000021135,17.22181979999982,[-0.03666666666666667],[-0.06666666666666667],[1],[0],[0],[1.7248702999995658],['target'],887105,001,2024-10-10_14h07.04.051,visual search,2024.2.1post4,59.996424213172304,2024-10-10 14h07.10.875101 +0530,
6,0,6,[0.31666666666666665],[-0.2683333333333333],[1],[0],[0],[1.7821834999999737],['target'],6,0,6,0,17.25105499999995,,5,17.238366899999846,17.25105499999995,17.25105499999995,0.016363900000214926,19.020922500000097,[0.31666666666666665],[-0.2683333333333333],[1],[0],[0],[1.7821834999999737],['target'],887105,001,2024-10-10_14h07.04.051,visual search,2024.2.1post4,59.996424213172304,2024-10-10 14h07.10.875101 +0530,
7,0,7,[0.31],[-0.19],[1],[0],[0],[1.4712360999997145],['target'],7,0,7,0,19.04890649999993,,5,19.034367099999827,19.04890649999993,19.04890649999993,0.013305899999977555,20.506011300000182,[0.31],[-0.19],[1],[0],[0],[1.4712360999997145],['target'],887105,001,2024-10-10_14h07.04.051,visual search,2024.2.1post4,59.996424213172304,2024-10-10 14h07.10.875101 +0530,
8,0,8,[0.44],[-0.4066666666666667],[1],[0],[0],[2.317087100000208],['target'],8,0,8,0,20.532307000000174,,5,20.520225699999855,20.532307000000174,20.532307000000174,0.014048799999727635,22.837694099999908,[0.44],[-0.4066666666666667],[1],[0],[0],[2.317087100000208],['target'],887105,001,2024-10-10_14h07.04.051,visual search,2024.2.1post4,59.996424213172304,2024-10-10 14h07.10.875101 +0530,
9,0,9,[0.2733333333333333],[-0.3233333333333333],[1],[0],[0],[4.037358300000051],['target'],9,0,9,0,22.865729599999895,,5,22.85086350000006,22.865729599999895,22.865729599999895,0.01302880000002915,26.88865890000011,[0.2733333333333333],[-0.3233333333333333],[1],[0],[0],[4.037358300000051],['target'],887105,001,2024-10-10_14h07.04.051,visual search,2024.2.1post4,59.996424213172304,2024-10-10 14h07.10.875101 +0530,
10,0,10,[0.0033333333333333335],[-0.14666666666666667],[1],[0],[0],[1.5529615999998896],['target'],10,0,10,0,26.91589390000013,,5,26.902189700000008,26.91589390000013,26.91589390000013,0.013380899999901885,28.45553750000022,[0.0033333333333333335],[-0.14666666666666667],[1],[0],[0],[1.5529615999998896],['target'],887105,001,2024-10-10_14h07.04.051,visual search,2024.2.1post4,59.996424213172304,2024-10-10 14h07.10.875101 +0530,
11,0,11,[0.41],[0.05333333333333334],[1],[0],[0],[2.0174873999999363],['target'],11,0,11,0,28.482701199999838,,5,28.471555299999864,28.482701199999838,28.482701199999838,0.015844499999730033,30.489471199999798,[0.41],[0.05333333333333334],[1],[0],[0],[2.0174873999999363],['target'],887105,001,2024-10-10_14h07.04.051,visual search,2024.2.1post4,59.996424213172304,2024-10-10 14h07.10.875101 +0530,
12,0,12,[-0.25166666666666665],[-0.08333333333333333],[1],[0],[0],[2.067236100000173],['target'],12,0,12,0,30.536430299999893,,10,30.521905899999865,30.536430299999893,30.536430299999893,0.03222679999998945,32.58955300000002,[-0.25166666666666665],[-0.08333333333333333],[1],[0],[0],[2.067236100000173],['target'],887105,001,2024-10-10_14h07.04.051,visual search,2024.2.1post4,59.996424213172304,2024-10-10 14h07.10.875101 +0530,
13,0,13,[0.12833333333333333],[-0.46166666666666667],[1],[0],[0],[2.7002190000002884],['target'],13,0,13,0,32.61616509999999,,5,32.60457070000007,32.61616509999999,32.61616509999999,0.014812299999903189,35.3051753000002,[0.12833333333333333],[-0.46166666666666667],[1],[0],[0],[2.7002190000002884],['target'],887105,001,2024-10-10_14h07.04.051,visual search,2024.2.1post4,59.996424213172304,2024-10-10 14h07.10.875101 +0530,
14,0,14,[0.008333333333333333],[0.18166666666666667],[1],[0],[0],[3.490519100000256],['target'],14,0,14,0,35.34568830000012,,10,35.331234800000175,35.34568830000012,35.34568830000012,0.025919600000179344,38.82213990000014,[0.008333333333333333],[0.18166666666666667],[1],[0],[0],[3.490519100000256],['target'],887105,001,2024-10-10_14h07.04.051,visual search,2024.2.1post4,59.996424213172304,2024-10-10 14h07.10.875101 +0530,
15,0,15,[-0.10166666666666667],[0.07166666666666667],[1],[0],[0],[1.5714782999998533],['target'],15,0,15,0,38.84977920000006,,5,38.83523519999994,38.84977920000006,38.84977920000006,0.012938600000325096,40.407126599999856,[-0.10166666666666667],[0.07166666666666667],[1],[0],[0],[1.5714782999998533],['target'],887105,001,2024-10-10_14h07.04.051,visual search,2024.2.1post4,59.996424213172304,2024-10-10 14h07.10.875101 +0530,
16,0,16,[0.11166666666666666],[-0.045],[1],[0],[0],[1.5513865999996597],['target'],16,0,16,0,40.43314350000014,,5,40.42080420000025,40.43314350000014,40.43314350000014,0.013529299999845534,41.972607299999936,[0.11166666666666666],[-0.045],[1],[0],[0],[1.5513865999996597],['target'],887105,001,2024-10-10_14h07.04.051,visual search,2024.2.1post4,59.996424213172304,2024-10-10 14h07.10.875101 +0530,
17,0,17,[0.38],[0.018333333333333333],[1],[0],[0],[2.6670820999997886],['target'],17,0,17,0,42.00237859999993,,5,41.988335300000244,42.00237859999993,42.00237859999993,0.015588100000059057,44.65582299999983,[0.38],[0.018333333333333333],[1],[0],[0],[2.6670820999997886],['target'],887105,001,2024-10-10_14h07.04.051,visual search,2024.2.1post4,59.996424213172304,2024-10-10 14h07.10.875101 +0530,
18,0,18,[-0.36333333333333334],[-0.085],[1],[0],[0],[2.7749313999997867],['target'],18,0,18,0,44.69633420000014,,10,44.681724299999814,44.69633420000014,44.69633420000014,0.025766299999759212,47.45706159999986,[-0.36333333333333334],[-0.085],[1],[0],[0],[2.7749313999997867],['target'],887105,001,2024-10-10_14h07.04.051,visual search,2024.2.1post4,59.996424213172304,2024-10-10 14h07.10.875101 +0530,
19,0,19,[-0.3566666666666667],[-0.22],[1],[0],[0],[2.051316599999609],['target'],19,0,19,0,47.48350629999982,,5,47.47173360000011,47.48350629999982,47.48350629999982,0.014447099999870261,49.523430899999994,[-0.3566666666666667],[-0.22],[1],[0],[0],[2.051316599999609],['target'],887105,001,2024-10-10_14h07.04.051,visual search,2024.2.1post4,59.996424213172304,2024-10-10 14h07.10.875101 +0530,
20,0,20,[-0.041666666666666664],[0.24833333333333332],[1],[0],[0],[2.356875200000104],['target'],20,0,20,0,49.56356230000006,,10,49.5490828999998,49.56356230000006,49.56356230000006,0.025521799999751238,51.906346299999996,[-0.041666666666666664],[0.24833333333333332],[1],[0],[0],[2.356875200000104],['target'],887105,001,2024-10-10_14h07.04.051,visual search,2024.2.1post4,59.996424213172304,2024-10-10 14h07.10.875101 +0530,
21,0,21,[0.24833333333333332],[0.16833333333333333],[1],[0],[0],[1.4224798000000192],['target'],21,0,21,0,51.948744300000044,,10,51.93431020000003,51.948744300000044,51.948744300000044,0.02775549999978466,53.35719619999986,[0.24833333333333332],[0.16833333333333333],[1],[0],[0],[1.4224798000000192],['target'],887105,001,2024-10-10_14h07.04.051,visual search,2024.2.1post4,59.996424213172304,2024-10-10 14h07.10.875101 +0530,
22,0,22,[0.04666666666666667],[0.10666666666666667],[1],[0],[0],[1.9777619999999843],['target'],22,0,22,0,53.39182020000021,,5,53.37896190000015,53.39182020000021,53.39182020000021,0.02156189999959679,55.357119399999874,[0.04666666666666667],[0.10666666666666667],[1],[0],[0],[1.9777619999999843],['target'],887105,001,2024-10-10_14h07.04.051,visual search,2024.2.1post4,59.996424213172304,2024-10-10 14h07.10.875101 +0530,
23,0,23,[0.16833333333333333],[0.445],[1],[0],[0],[1.8345604999999523],['target'],23,0,23,0,55.383811299999934,,5,55.37146409999991,55.383811299999934,55.383811299999934,0.014162899999973888,57.206410800000185,[0.16833333333333333],[0.445],[1],[0],[0],[1.8345604999999523],['target'],887105,001,2024-10-10_14h07.04.051,visual search,2024.2.1post4,59.996424213172304,2024-10-10 14h07.10.875101 +0530,
24,0,24,[0.2916666666666667],[-0.36833333333333335],[1],[0],[0],[3.8733492999999726],['target'],24,0,24,0,57.24764990000017,,10,57.23307339999997,57.24764990000017,57.24764990000017,0.026532000000315747,61.106817099999944,[0.2916666666666667],[-0.36833333333333335],[1],[0],[0],[3.8733492999999726],['target'],887105,001,2024-10-10_14h07.04.051,visual search,2024.2.1post4,59.996424213172304,2024-10-10 14h07.10.875101 +0530,
25,0,25,[0.01],[-0.035],[1],[0],[0],[6.222183400000176],['target'],25,0,25,0,61.14911229999984,,10,61.13461979999988,61.14911229999984,61.14911229999984,0.027585300000282587,67.35717679999993,[0.01],[-0.035],[1],[0],[0],[6.222183400000176],['target'],887105,001,2024-10-10_14h07.04.051,visual search,2024.2.1post4,59.996424213172304,2024-10-10 14h07.10.875101 +0530,
26,0,26,[-0.19833333333333333],[0.21166666666666667],[1],[0],[0],[2.1530619999998635],['target'],26,0,26,0,67.38423579999994,,5,67.37026230000015,67.38423579999994,67.38423579999994,0.012913399999888497,69.52371640000024,[-0.19833333333333333],[0.21166666666666667],[1],[0],[0],[2.1530619999998635],['target'],887105,001,2024-10-10_14h07.04.051,visual search,2024.2.1post4,59.996424213172304,2024-10-10 14h07.10.875101 +0530,
27,0,27,[0.36333333333333334],[0.3233333333333333],[1],[0],[0],[2.6696852999998555],['target'],27,0,27,0,69.55102790000024,,5,69.53689539999982,69.55102790000024,69.55102790000024,0.013050400000338414,72.20695480000018,[0.36333333333333334],[0.3233333333333333],[1],[0],[0],[2.6696852999998555],['target'],887105,001,2024-10-10_14h07.04.051,visual search,2024.2.1post4,59.996424213172304,2024-10-10 14h07.10.875101 +0530,
28,0,28,[-0.3566666666666667],[0.19],[1],[0],[0],[2.119638699999996],['target'],28,0,28,0,72.23466220000023,,5,72.22047769999995,72.23466220000023,72.23466220000023,0.013382500000261643,74.34048450000023,[-0.3566666666666667],[0.19],[1],[0],[0],[2.119638699999996],['target'],887105,001,2024-10-10_14h07.04.051,visual search,2024.2.1post4,59.996424213172304,2024-10-10 14h07.10.875101 +0530,
29,0,29,[-0.18666666666666668],[-0.20666666666666667],[1],[0],[0],[2.220222499999636],['target'],29,0,29,0,74.36788790000014,,5,74.35360270000024,74.36788790000014,74.36788790000014,0.012985300000309508,76.57421970000019,[-0.18666666666666668],[-0.20666666666666667],[1],[0],[0],[2.220222499999636],['target'],887105,001,2024-10-10_14h07.04.051,visual search,2024.2.1post4,59.996424213172304,2024-10-10 14h07.10.875101 +0530,
30,0,30,[-0.041666666666666664],[0.23],[1],[0],[0],[1.9339829000000464],['target'],30,0,30,0,76.60138530000017,,5,76.58980339999994,76.60138530000017,76.60138530000017,0.015409099999942555,78.52422219999994,[-0.041666666666666664],[0.23],[1],[0],[0],[1.9339829000000464],['target'],887105,001,2024-10-10_14h07.04.051,visual search,2024.2.1post4,59.996424213172304,2024-10-10 14h07.10.875101 +0530,
31,0,31,[0.41333333333333333],[0.37333333333333335],[1],[0],[0],[2.0896795000003294],['target'],31,0,31,0,78.56476369999996,,10,78.5501554,78.56476369999996,78.56476369999996,0.0258017999999538,80.6402142999998,[0.41333333333333333],[0.37333333333333335],[1],[0],[0],[2.0896795000003294],['target'],887105,001,2024-10-10_14h07.04.051,visual search,2024.2.1post4,59.996424213172304,2024-10-10 14h07.10.875101 +0530,
32,0,32,[0.05],[0.05333333333333334],[1],[0],[0],[2.302408600000035],['target'],32,0,32,0,80.66814039999986,,5,80.65345279999997,80.66814039999986,80.66814039999986,0.013068900000234862,82.95624340000018,[0.05],[0.05333333333333334],[1],[0],[0],[2.302408600000035],['target'],887105,001,2024-10-10_14h07.04.051,visual search,2024.2.1post4,59.996424213172304,2024-10-10 14h07.10.875101 +0530,
33,0,33,[-0.14166666666666666],[0.13833333333333334],[1],[0],[0],[1.5746024000000034],['target'],33,0,33,0,82.99892879999993,,10,82.98445670000024,82.99892879999993,82.99892879999993,0.0280283000001873,84.55952249999996,[-0.14166666666666666],[0.13833333333333334],[1],[0],[0],[1.5746024000000034],['target'],887105,001,2024-10-10_14h07.04.051,visual search,2024.2.1post4,59.996424213172304,2024-10-10 14h07.10.875101 +0530,
34,0,34,[-0.018333333333333333],[-0.3933333333333333],[1],[0],[0],[3.2526474999999664],['target'],34,0,34,0,84.60318710000024,,10,84.58811900000023,84.60318710000024,84.60318710000024,0.02831130000004123,87.84115839999981,[-0.018333333333333333],[-0.3933333333333333],[1],[0],[0],[3.2526474999999664],['target'],887105,001,2024-10-10_14h07.04.051,visual search,2024.2.1post4,59.996424213172304,2024-10-10 14h07.10.875101 +0530,
35,0,35,[-0.465],[0.12166666666666667],[1],[0],[0],[2.187658199999987],['target'],35,0,35,0,87.88372270000013,,10,87.86923069999989,87.88372270000013,87.88372270000013,0.027842899999996007,90.05730419999986,[-0.465],[0.12166666666666667],[1],[0],[0],[2.187658199999987],['target'],887105,001,2024-10-10_14h07.04.051,visual search,2024.2.1post4,59.996424213172304,2024-10-10 14h07.10.875101 +0530,
36,0,36,[0.27666666666666667],[0.40166666666666667],[1],[0],[0],[1.9199846999999863],['target'],36,0,36,0,90.08521709999991,,5,90.07209420000004,90.08521709999991,90.08521709999991,0.014577700000245386,91.99251299999992,[0.27666666666666667],[0.40166666666666667],[1],[0],[0],[1.9199846999999863],['target'],887105,001,2024-10-10_14h07.04.051,visual search,2024.2.1post4,59.996424213172304,2024-10-10 14h07.10.875101 +0530,
37,0,37,[-0.13333333333333333],[-0.2683333333333333],[1],[0],[0],[1.7646299000002728],['target'],37,0,37,0,92.02343150000002,,5,92.00986209999996,92.02343150000002,92.02343150000002,0.017197899999700894,93.77488010000002,[-0.13333333333333333],[-0.2683333333333333],[1],[0],[0],[1.7646299000002728],['target'],887105,001,2024-10-10_14h07.04.051,visual search,2024.2.1post4,59.996424213172304,2024-10-10 14h07.10.875101 +0530,
38,0,38,[-0.043333333333333335],[-0.36],[1],[0],[0],[1.9511987000000772],['target'],38,0,38,0,93.80208809999999,,5,93.79078480000021,93.80208809999999,93.80208809999999,0.015727500000139116,95.74238440000022,[-0.043333333333333335],[-0.36],[1],[0],[0],[1.9511987000000772],['target'],887105,001,2024-10-10_14h07.04.051,visual search,2024.2.1post4,59.996424213172304,2024-10-10 14h07.10.875101 +0530,
39,0,39,[0.49666666666666665],[-0.06],[1],[0],[0],[1.788751300000058],['target'],39,0,39,0,95.78440479999995,,10,95.7696228000002,95.78440479999995,95.78440479999995,0.02707399999962945,97.55875600000013,[0.49666666666666665],[-0.06],[1],[0],[0],[1.788751300000058],['target'],887105,001,2024-10-10_14h07.04.051,visual search,2024.2.1post4,59.996424213172304,2024-10-10 14h07.10.875101 +0530,
40,0,40,[-0.20333333333333334],[-0.15333333333333332],[1],[0],[0],[1.6333792999998877],['target'],40,0,40,0,97.58613200000013,,5,97.57530130000009,97.58613200000013,97.58613200000013,0.016299400000207243,99.20909880000022,[-0.20333333333333334],[-0.15333333333333332],[1],[0],[0],[1.6333792999998877],['target'],887105,001,2024-10-10_14h07.04.051,visual search,2024.2.1post4,59.996424213172304,2024-10-10 14h07.10.875101 +0530,
41,0,41,[0.28],[0.27],[1],[0],[0],[1.8058241999997335],['target'],41,0,41,0,99.25010889999999,,10,99.23561799999993,99.25010889999999,99.25010889999999,0.026347200000145676,101.0418175000002,[0.28],[0.27],[1],[0],[0],[1.8058241999997335],['target'],887105,001,2024-10-10_14h07.04.051,visual search,2024.2.1post4,59.996424213172304,2024-10-10 14h07.10.875101 +0530,
42,0,42,[-0.31166666666666665],[-0.19833333333333333],[1],[0],[0],[1.9459750000000895],['target'],42,0,42,0,101.0765813999999,,5,101.06260760000009,101.0765813999999,101.0765813999999,0.02057009999998627,103.00899279999999,[-0.31166666666666665],[-0.19833333333333333],[1],[0],[0],[1.9459750000000895],['target'],887105,001,2024-10-10_14h07.04.051,visual search,2024.2.1post4,59.996424213172304,2024-10-10 14h07.10.875101 +0530,
43,0,43,[-0.02],[0.3416666666666667],[1],[0],[0],[2.5878680999999233],['target'],43,0,43,0,103.05179750000002,,10,103.03712900000005,103.05179750000002,103.05179750000002,0.027949100000114413,105.62538669999981,[-0.02],[0.3416666666666667],[1],[0],[0],[2.5878680999999233],['target'],887105,001,2024-10-10_14h07.04.051,visual search,2024.2.1post4,59.996424213172304,2024-10-10 14h07.10.875101 +0530,
44,0,44,[-0.03],[0.24666666666666667],[1],[0],[0],[2.0677436000000853],['target'],44,0,44,0,105.65258819999985,,5,105.64143660000013,105.65258819999985,105.65258819999985,0.015817299999980605,107.70960780000019,[-0.03],[0.24666666666666667],[1],[0],[0],[2.0677436000000853],['target'],887105,001,2024-10-10_14h07.04.051,visual search,2024.2.1post4,59.996424213172304,2024-10-10 14h07.10.875101 +0530,
45,0,45,[-0.08],[-0.27166666666666667],[1],[0],[0],[1.933372099999815],['target'],45,0,45,0,107.73597769999992,,5,107.72424019999994,107.73597769999992,107.73597769999992,0.014456699999755074,109.65801960000022,[-0.08],[-0.27166666666666667],[1],[0],[0],[1.933372099999815],['target'],887105,001,2024-10-10_14h07.04.051,visual search,2024.2.1post4,59.996424213172304,2024-10-10 14h07.10.875101 +0530,
46,0,46,[0.43333333333333335],[0.38],[1],[0],[0],[4.7387446000002456],['target'],46,0,46,0,109.70040219999987,,10,109.68598910000014,109.70040219999987,109.70040219999987,0.027804599999853963,114.42512670000019,[0.43333333333333335],[0.38],[1],[0],[0],[4.7387446000002456],['target'],887105,001,2024-10-10_14h07.04.051,visual search,2024.2.1post4,59.996424213172304,2024-10-10 14h07.10.875101 +0530,
47,0,47,[0.19666666666666666],[0.3933333333333333],[1],[0],[0],[1.5701170000002094],['target'],47,0,47,0,114.45292910000012,,5,114.4385605,114.45292910000012,114.45292910000012,0.013250200000129553,116.0090474000001,[0.19666666666666666],[0.3933333333333333],[1],[0],[0],[1.5701170000002094],['target'],887105,001,2024-10-10_14h07.04.051,visual search,2024.2.1post4,59.996424213172304,2024-10-10 14h07.10.875101 +0530,
48,0,48,[-0.215],[-0.11333333333333333],[1],[0],[0],[2.039772399999947],['target'],48,0,48,0,116.05011780000018,,10,116.0355791999998,116.05011780000018,116.05011780000018,0.02641079999966678,118.07574649999992,[-0.215],[-0.11333333333333333],[1],[0],[0],[2.039772399999947],['target'],887105,001,2024-10-10_14h07.04.051,visual search,2024.2.1post4,59.996424213172304,2024-10-10 14h07.10.875101 +0530,
49,0,49,[0.235],[0.175],[1],[0],[0],[3.23410849999982],['target'],49,0,49,0,118.10322209999981,,5,118.09236889999988,118.10322209999981,118.10322209999981,0.01635759999999209,121.32687640000017,[0.235],[0.175],[1],[0],[0],[3.23410849999982],['target'],887105,001,2024-10-10_14h07.04.051,visual search,2024.2.1post4,59.996424213172304,2024-10-10 14h07.10.875101 +0530,
50,0,50,[-0.395],[0.10833333333333334],[1],[0],[0],[3.18896309999991],['target'],50,0,50,0,121.36792900000023,,10,121.35350410000024,121.36792900000023,121.36792900000023,0.02645459999985178,124.5428844999999,[-0.395],[0.10833333333333334],[1],[0],[0],[3.18896309999991],['target'],887105,001,2024-10-10_14h07.04.051,visual search,2024.2.1post4,59.996424213172304,2024-10-10 14h07.10.875101 +0530,
51,0,51,[0.30666666666666664],[0.06333333333333334],[1],[0],[0],[2.287520300000324],['target'],51,0,51,0,124.58632650000004,,10,124.57179380000002,124.58632650000004,124.58632650000004,0.028702999999950407,126.85969499999987,[0.30666666666666664],[0.06333333333333334],[1],[0],[0],[2.287520300000324],['target'],887105,001,2024-10-10_14h07.04.051,visual search,2024.2.1post4,59.996424213172304,2024-10-10 14h07.10.875101 +0530,
52,0,52,[0.35833333333333334],[0.47333333333333333],[1],[0],[0],[2.003343700000187],['target'],52,0,52,0,126.90389029999983,,10,126.8891027000002,126.90389029999983,126.90389029999983,0.029199200000221026,128.89281890000007,[0.35833333333333334],[0.47333333333333333],[1],[0],[0],[2.003343700000187],['target'],887105,001,2024-10-10_14h07.04.051,visual search,2024.2.1post4,59.996424213172304,2024-10-10 14h07.10.875101 +0530,
53,0,53,[0.12],[-0.4266666666666667],[1],[0],[0],[3.5577658999995947],['target'],53,0,53,0,128.9327879,,10,128.91831909999996,128.9327879,128.9327879,0.025339399999666057,132.47649230000002,[0.12],[-0.4266666666666667],[1],[0],[0],[3.5577658999995947],['target'],887105,001,2024-10-10_14h07.04.051,visual search,2024.2.1post4,59.996424213172304,2024-10-10 14h07.10.875101 +0530,
54,0,54,[0.10666666666666667],[0.235],[1],[0],[0],[2.9514839999997093],['target'],54,0,54,0,132.50375450000024,,5,132.49234660000025,132.50375450000024,132.50375450000024,0.015630400000191003,135.44424090000007,[0.10666666666666667],[0.235],[1],[0],[0],[2.9514839999997093],['target'],887105,001,2024-10-10_14h07.04.051,visual search,2024.2.1post4,59.996424213172304,2024-10-10 14h07.10.875101 +0530,
55,0,55,[-0.14666666666666667],[0.405],[1],[0],[0],[2.2868804999998247],['target'],55,0,55,0,135.4870558,,10,135.47263720000024,135.4870558,135.4870558,0.0281873000003543,137.75989950000007,[-0.14666666666666667],[0.405],[1],[0],[0],[2.2868804999998247],['target'],887105,001,2024-10-10_14h07.04.051,visual search,2024.2.1post4,59.996424213172304,2024-10-10 14h07.10.875101 +0530,
56,0,56,[-0.20333333333333334],[-0.41],[1],[0],[0],[2.0213810000000194],['target'],56,0,56,0,137.8026287,,10,137.78781550000008,137.8026287,137.8026287,0.027709199999662815,139.80957710000007,[-0.20333333333333334],[-0.41],[1],[0],[0],[2.0213810000000194],['target'],887105,001,2024-10-10_14h07.04.051,visual search,2024.2.1post4,59.996424213172304,2024-10-10 14h07.10.875101 +0530,
57,0,57,[0.4633333333333333],[0.13833333333333334],[1],[0],[0],[1.7703965999999127],['target'],57,0,57,0,139.83725459999982,,5,139.82283889999985,139.83725459999982,139.83725459999982,0.013085900000078254,141.59360970000012,[0.4633333333333333],[0.13833333333333334],[1],[0],[0],[1.7703965999999127],['target'],887105,001,2024-10-10_14h07.04.051,visual search,2024.2.1post4,59.996424213172304,2024-10-10 14h07.10.875101 +0530,
58,0,58,[0.225],[0.05],[1],[0],[0],[1.871114800000214],['target'],58,0,58,0,141.6206765999998,,5,141.6070341000002,141.6206765999998,141.6206765999998,0.013283100000080594,143.47857640000007,[0.225],[0.05],[1],[0],[0],[1.871114800000214],['target'],887105,001,2024-10-10_14h07.04.051,visual search,2024.2.1post4,59.996424213172304,2024-10-10 14h07.10.875101 +0530,
59,0,59,[0.095],[0.021666666666666667],[1],[0],[0],[1.3979131999999481],['target'],59,0,59,0,143.5094247999998,,5,143.49604969999996,143.5094247999998,143.5094247999998,0.01734100000021499,144.89439900000002,[0.095],[0.021666666666666667],[1],[0],[0],[1.3979131999999481],['target'],887105,001,2024-10-10_14h07.04.051,visual search,2024.2.1post4,59.996424213172304,2024-10-10 14h07.10.875101 +0530,
60,0,60,[0.10166666666666667],[-0.02],[1],[0],[0],[1.101466199999777],['target'],60,0,60,0,144.92082689999984,,5,144.9085166000002,144.92082689999984,144.92082689999984,0.013945600000170089,146.01037440000005,[0.10166666666666667],[-0.02],[1],[0],[0],[1.101466199999777],['target'],887105,001,2024-10-10_14h07.04.051,visual search,2024.2.1post4,59.996424213172304,2024-10-10 14h07.10.875101 +0530,
61,0,61,[-0.5016666666666667],[0.33166666666666667],[1],[0],[0],[1.8174792999998317],['target'],61,0,61,0,146.0375505999998,,5,146.02338669999995,146.0375505999998,146.0375505999998,0.012878500000169879,147.84125010000002,[-0.5016666666666667],[0.33166666666666667],[1],[0],[0],[1.8174792999998317],['target'],887105,001,2024-10-10_14h07.04.051,visual search,2024.2.1post4,59.996424213172304,2024-10-10 14h07.10.875101 +0530,
62,0,62,[-0.15],[-0.043333333333333335],[1],[0],[0],[1.643995499999619],['target'],62,0,62,0,147.88219659999982,,10,147.86680839999985,147.88219659999982,147.88219659999982,0.025422700000035547,149.51119989999984,[-0.15],[-0.043333333333333335],[1],[0],[0],[1.643995499999619],['target'],887105,001,2024-10-10_14h07.04.051,visual search,2024.2.1post4,59.996424213172304,2024-10-10 14h07.10.875101 +0530,
63,0,63,[0.21166666666666667],[-0.18333333333333332],[1],[0],[0],[1.772294299999885],['target'],63,0,63,0,149.5523268999998,,10,149.5379022999998,149.5523268999998,149.5523268999998,0.026497999999719468,151.3105836000002,[0.21166666666666667],[-0.18333333333333332],[1],[0],[0],[1.772294299999885],['target'],887105,001,2024-10-10_14h07.04.051,visual search,2024.2.1post4,59.996424213172304,2024-10-10 14h07.10.875101 +0530,
64,0,64,[0.056666666666666664],[-0.135],[1],[0],[0],[2.2182753000001867],[None],64,0,64,0,151.4089289000001,,5,151.32626809999988,151.4089289000001,151.4089289000001,0.015451800000391813,153.5449470000001,[0.056666666666666664],[-0.135],[1],[0],[0],[2.2182753000001867],[None],887105,001,2024-10-10_14h07.04.051,visual search,2024.2.1post4,59.996424213172304,2024-10-10 14h07.10.875101 +0530,
65,0,65,[-0.10833333333333334],[-0.215],[1],[0],[0],[1.6389939999999115],['target'],65,0,65,0,153.5858139999998,,10,153.5713005,153.5858139999998,153.5858139999998,0.026186500000221713,155.21066150000001,[-0.10833333333333334],[-0.215],[1],[0],[0],[1.6389939999999115],['target'],887105,001,2024-10-10_14h07.04.051,visual search,2024.2.1post4,59.996424213172304,2024-10-10 14h07.10.875101 +0530,
66,0,66,[0.25833333333333336],[0.315],[1],[0],[0],[2.0725720999998885],['target'],66,0,66,0,155.2533535,,10,155.23885510000014,155.2533535,155.2533535,0.027994000000035157,157.31181859999992,[0.25833333333333336],[0.315],[1],[0],[0],[2.0725720999998885],['target'],887105,001,2024-10-10_14h07.04.051,visual search,2024.2.1post4,59.996424213172304,2024-10-10 14h07.10.875101 +0530,
67,0,67,[0.405],[-0.40166666666666667],[1],[0],[0],[2.0875237000000197],['target'],67,0,67,0,157.35419149999984,,10,157.33971899999983,157.35419149999984,157.35419149999984,0.027685700000347424,159.42763330000002,[0.405],[-0.40166666666666667],[1],[0],[0],[2.0875237000000197],['target'],887105,001,2024-10-10_14h07.04.051,visual search,2024.2.1post4,59.996424213172304,2024-10-10 14h07.10.875101 +0530,
68,0,68,[0.19666666666666666],[-0.055],[1],[0],[0],[1.3513774999996713],[None],68,0,68,0,159.45524839999985,,5,159.44368020000024,159.45524839999985,159.45524839999985,0.01581290000012814,160.79547019999995,[0.19666666666666666],[-0.055],[1],[0],[0],[1.3513774999996713],[None],887105,001,2024-10-10_14h07.04.051,visual search,2024.2.1post4,59.996424213172304,2024-10-10 14h07.10.875101 +0530,
69,0,69,[0.24666666666666667],[-0.25],[1],[0],[0],[1.4188135000003967],['target'],69,0,69,0,160.82157459999985,,5,160.80964900000004,160.82157459999985,160.82157459999985,0.01401609999993525,162.22883579999984,[0.24666666666666667],[-0.25],[1],[0],[0],[1.4188135000003967],['target'],887105,001,2024-10-10_14h07.04.051,visual search,2024.2.1post4,59.996424213172304,2024-10-10 14h07.10.875101 +0530,
70,0,70,[-0.315],[-0.02],[1],[0],[0],[1.3651572000003398],['target'],70,0,70,0,162.26021419999984,,5,162.24581190000004,162.26021419999984,162.26021419999984,0.01684460000024046,163.61134960000004,[-0.315],[-0.02],[1],[0],[0],[1.3651572000003398],['target'],887105,001,2024-10-10_14h07.04.051,visual search,2024.2.1post4,59.996424213172304,2024-10-10 14h07.10.875101 +0530,
71,0,71,[-0.19],[-0.18833333333333332],[1],[0],[0],[1.4544285000001764],['target'],71,0,71,0,163.6533436000002,,10,163.63887090000003,163.6533436000002,163.6533436000002,0.02735290000009627,165.09367009999983,[-0.19],[-0.18833333333333332],[1],[0],[0],[1.4544285000001764],['target'],887105,001,2024-10-10_14h07.04.051,visual search,2024.2.1post4,59.996424213172304,2024-10-10 14h07.10.875101 +0530,
72,0,72,[-0.16666666666666666],[-0.07833333333333334],[1],[0],[0],[1.2213575000000674],['target'],72,0,72,0,165.1217181999998,,5,165.1069387,165.1217181999998,165.1217181999998,0.013099000000238448,166.3287410999999,[-0.16666666666666666],[-0.07833333333333334],[1],[0],[0],[1.2213575000000674],['target'],887105,001,2024-10-10_14h07.04.051,visual search,2024.2.1post4,59.996424213172304,2024-10-10 14h07.10.875101 +0530,
73,0,73,[-0.15166666666666667],[0.2633333333333333],[1],[0],[0],[1.2794649999996182],[None],73,0,73,0,166.3615954999998,,5,166.3481623,166.3615954999998,166.3615954999998,0.019255900000189285,167.62802290000013,[-0.15166666666666667],[0.2633333333333333],[1],[0],[0],[1.2794649999996182],[None],887105,001,2024-10-10_14h07.04.051,visual search,2024.2.1post4,59.996424213172304,2024-10-10 14h07.10.875101 +0530,
74,0,74,[0.225],[0.135],[1],[0],[0],[2.037915299999895],['target'],74,0,74,0,167.65517400000022,,5,167.64113109999994,167.65517400000022,167.65517400000022,0.012971800000286748,169.67944340000008,[0.225],[0.135],[1],[0],[0],[2.037915299999895],['target'],887105,001,2024-10-10_14h07.04.051,visual search,2024.2.1post4,59.996424213172304,2024-10-10 14h07.10.875101 +0530,
75,0,75,[0.13],[-0.2783333333333333],[1],[0],[0],[2.6722562999998445],['target'],75,0,75,0,169.72078799999986,,10,169.70629750000012,169.72078799999986,169.72078799999986,0.026687499999752617,172.37895490000005,[0.13],[-0.2783333333333333],[1],[0],[0],[2.6722562999998445],['target'],887105,001,2024-10-10_14h07.04.051,visual search,2024.2.1post4,59.996424213172304,2024-10-10 14h07.10.875101 +0530,
76,0,76,[0.24],[0.21833333333333332],[1],[0],[0],[2.5323091999998724],['target'],76,0,76,0,172.41224940000006,,5,172.3964208,172.41224940000006,172.41224940000006,0.01725460000034218,174.92913190000013,[0.24],[0.21833333333333332],[1],[0],[0],[2.5323091999998724],['target'],887105,001,2024-10-10_14h07.04.051,visual search,2024.2.1post4,59.996424213172304,2024-10-10 14h07.10.875101 +0530,
77,0,77,[-0.065],[-0.07166666666666667],[1],[0],[0],[2.1049613000000136],['target'],77,0,77,0,174.96999829999982,,10,174.95549860000006,174.96999829999982,174.96999829999982,0.026205600000139384,177.06083650000005,[-0.065],[-0.07166666666666667],[1],[0],[0],[2.1049613000000136],['target'],887105,001,2024-10-10_14h07.04.051,visual search,2024.2.1post4,59.996424213172304,2024-10-10 14h07.10.875101 +0530,
78,0,78,[0.075],[-0.28],[1],[0],[0],[2.1363169999999627],['target'],78,0,78,0,177.08888159999992,,5,177.0744487999998,177.08888159999992,177.08888159999992,0.013442999999824679,179.2111381000002,[0.075],[-0.28],[1],[0],[0],[2.1363169999999627],['target'],887105,001,2024-10-10_14h07.04.051,visual search,2024.2.1post4,59.996424213172304,2024-10-10 14h07.10.875101 +0530,
79,0,79,[-0.21],[-0.2733333333333333],[1],[0],[0],[2.8747136000001774],['target'],79,0,79,0,179.2513194999999,,10,179.23660790000008,179.2513194999999,179.2513194999999,0.02533820000007836,182.11171050000007,[-0.21],[-0.2733333333333333],[1],[0],[0],[2.8747136000001774],['target'],887105,001,2024-10-10_14h07.04.051,visual search,2024.2.1post4,59.996424213172304,2024-10-10 14h07.10.875101 +0530,
80,0,80,[0.38166666666666665],[-0.09833333333333333],[1],[0],[0],[2.707756899999822],['target'],80,0,80,0,182.15184579999982,,10,182.13716510000017,182.15184579999982,182.15184579999982,0.025284599999849888,184.84535119999987,[0.38166666666666665],[-0.09833333333333333],[1],[0],[0],[2.707756899999822],['target'],887105,001,2024-10-10_14h07.04.051,visual search,2024.2.1post4,59.996424213172304,2024-10-10 14h07.10.875101 +0530,
81,0,81,[-0.32666666666666666],[-0.335],[1],[0],[0],[2.03793719999976],['target'],81,0,81,0,184.88847409999994,,10,184.87386570000012,184.88847409999994,184.88847409999994,0.028291099999933067,186.91223650000006,[-0.32666666666666666],[-0.335],[1],[0],[0],[2.03793719999976],['target'],887105,001,2024-10-10_14h07.04.051,visual search,2024.2.1post4,59.996424213172304,2024-10-10 14h07.10.875101 +0530,
82,0,82,[0.2683333333333333],[-0.07166666666666667],[1],[0],[0],[1.8551223999998],[None],82,0,82,0,186.95787330000007,,10,186.94027859999983,186.95787330000007,186.95787330000007,0.027829399999973248,188.79599919999987,[0.2683333333333333],[-0.07166666666666667],[1],[0],[0],[1.8551223999998],[None],887105,001,2024-10-10_14h07.04.051,visual search,2024.2.1post4,59.996424213172304,2024-10-10 14h07.10.875101 +0530,
83,0,83,[0.37],[0.025],[1],[0],[0],[1.4494996999997056],['target'],83,0,83,0,188.84559990000002,,10,188.8307809999999,188.84559990000002,188.84559990000002,0.03419839999969554,190.2807277999998,[0.37],[0.025],[1],[0],[0],[1.4494996999997056],['target'],887105,001,2024-10-10_14h07.04.051,visual search,2024.2.1post4,59.996424213172304,2024-10-10 14h07.10.875101 +0530,
84,0,84,[0.3283333333333333],[0.18333333333333332],[1],[0],[0],[2.1618036999998367],['target'],84,0,84,0,190.31319770000005,,5,190.30023589999996,190.31319770000005,190.31319770000005,0.01927990000012869,192.46242199999983,[0.3283333333333333],[0.18333333333333332],[1],[0],[0],[2.1618036999998367],['target'],887105,001,2024-10-10_14h07.04.051,visual search,2024.2.1post4,59.996424213172304,2024-10-10 14h07.10.875101 +0530,
85,0,85,[-0.38166666666666665],[-0.4766666666666667],[1],[0],[0],[3.104968799999824],['target'],85,0,85,0,192.5049249000001,,10,192.4903394999999,192.5049249000001,192.5049249000001,0.02774379999982557,195.59570539999982,[-0.38166666666666665],[-0.4766666666666667],[1],[0],[0],[3.104968799999824],['target'],887105,001,2024-10-10_14h07.04.051,visual search,2024.2.1post4,59.996424213172304,2024-10-10 14h07.10.875101 +0530,
86,0,86,[0.4683333333333333],[0.405],[1],[0],[0],[2.224746700000196],['target'],86,0,86,0,195.63581690000024,,10,195.62129230000005,195.63581690000024,195.63581690000024,0.025417599999855156,197.84653600000024,[0.4683333333333333],[0.405],[1],[0],[0],[2.224746700000196],['target'],887105,001,2024-10-10_14h07.04.051,visual search,2024.2.1post4,59.996424213172304,2024-10-10 14h07.10.875101 +0530,
87,0,87,[-0.08166666666666667],[0.36333333333333334],[1],[0],[0],[2.1545648999999685],['target'],87,0,87,0,197.88865850000025,,10,197.87382460000003,197.88865850000025,197.88865850000025,0.027072599999883096,200.0287664,[-0.08166666666666667],[0.36333333333333334],[1],[0],[0],[2.1545648999999685],['target'],887105,001,2024-10-10_14h07.04.051,visual search,2024.2.1post4,59.996424213172304,2024-10-10 14h07.10.875101 +0530,
88,0,88,[0.455],[0.4083333333333333],[1],[0],[0],[2.06990739999992],['target'],88,0,88,0,200.05645789999994,,5,200.04179469999985,200.05645789999994,200.05645789999994,0.012857900000199152,202.11207949999994,[0.455],[0.4083333333333333],[1],[0],[0],[2.06990739999992],['target'],887105,001,2024-10-10_14h07.04.051,visual search,2024.2.1post4,59.996424213172304,2024-10-10 14h07.10.875101 +0530,
89,0,89,[-0.013333333333333334],[0.4633333333333333],[1],[0],[0],[2.7741003000001],['target'],89,0,89,0,202.1523534999999,,10,202.13758410000014,202.1523534999999,202.1523534999999,0.025366899999880843,204.91206709999983,[-0.013333333333333334],[0.4633333333333333],[1],[0],[0],[2.7741003000001],['target'],887105,001,2024-10-10_14h07.04.051,visual search,2024.2.1post4,59.996424213172304,2024-10-10 14h07.10.875101 +0530,
90,0,90,[-0.3333333333333333],[-0.16833333333333333],[1],[0],[0],[2.6421439999999166],['target'],90,0,90,0,204.95352200000002,,10,204.93760339999994,204.95352200000002,204.95352200000002,0.02535330000000613,207.58011770000007,[-0.3333333333333333],[-0.16833333333333333],[1],[0],[0],[2.6421439999999166],['target'],887105,001,2024-10-10_14h07.04.051,visual search,2024.2.1post4,59.996424213172304,2024-10-10 14h07.10.875101 +0530,
91,0,91,[0.3283333333333333],[0.085],[1],[0],[0],[1.9037303000000065],['target'],91,0,91,0,207.60686710000004,,5,207.59365319999984,207.60686710000004,207.60686710000004,0.013347200000225712,209.49784430000022,[0.3283333333333333],[0.085],[1],[0],[0],[1.9037303000000065],['target'],887105,001,2024-10-10_14h07.04.051,visual search,2024.2.1post4,59.996424213172304,2024-10-10 14h07.10.875101 +0530,
92,0,92,[0.355],[0.335],[1],[0],[0],[2.3097599000002447],['target'],92,0,92,0,209.5558821000002,,10,209.53608550000013,209.5558821000002,209.5558821000002,0.038077500000326836,211.84624980000012,[0.355],[0.335],[1],[0],[0],[2.3097599000002447],['target'],887105,001,2024-10-10_14h07.04.051,visual search,2024.2.1post4,59.996424213172304,2024-10-10 14h07.10.875101 +0530,
93,0,93,[0.058333333333333334],[0.49],[1],[0],[0],[2.2513630000003104],['target'],93,0,93,0,211.89469050000002,,10,211.8775320000002,211.89469050000002,211.89469050000002,0.03106149999985064,214.12931679999997,[0.058333333333333334],[0.49],[1],[0],[0],[2.2513630000003104],['target'],887105,001,2024-10-10_14h07.04.051,visual search,2024.2.1post4,59.996424213172304,2024-10-10 14h07.10.875101 +0530,
94,0,94,[-0.26],[-0.11166666666666666],[1],[0],[0],[1.9367890999997144],['target'],94,0,94,0,214.15716159999988,,5,214.1425044,214.15716159999988,214.15716159999988,0.013021500000377273,216.07973229999993,[-0.26],[-0.11166666666666666],[1],[0],[0],[1.9367890999997144],['target'],887105,001,2024-10-10_14h07.04.051,visual search,2024.2.1post4,59.996424213172304,2024-10-10 14h07.10.875101 +0530,
95,0,95,[0.48],[0.145],[1],[0],[0],[2.8179176999997253],['target'],95,0,95,0,216.1300103000001,,10,216.11268700000005,216.1300103000001,216.1300103000001,0.0328349999999773,218.93101679999995,[0.48],[0.145],[1],[0],[0],[2.8179176999997253],['target'],887105,001,2024-10-10_14h07.04.051,visual search,2024.2.1post4,59.996424213172304,2024-10-10 14h07.10.875101 +0530,
96,0,96,[-0.085],[-0.041666666666666664],[1],[0],[0],[2.3021967999998196],['target'],96,0,96,0,218.95729910000023,,5,218.94535440000004,218.95729910000023,218.95729910000023,0.014139500000055705,221.2480154000002,[-0.085],[-0.041666666666666664],[1],[0],[0],[2.3021967999998196],['target'],887105,001,2024-10-10_14h07.04.051,visual search,2024.2.1post4,59.996424213172304,2024-10-10 14h07.10.875101 +0530,
97,0,97,[0.16166666666666665],[0.23833333333333334],[1],[0],[0],[2.198240900000201],['target'],97,0,97,0,221.27913310000008,,5,221.26596210000002,221.27913310000008,221.27913310000008,0.017805800000132876,223.46462940000015,[0.16166666666666665],[0.23833333333333334],[1],[0],[0],[2.198240900000201],['target'],887105,001,2024-10-10_14h07.04.051,visual search,2024.2.1post4,59.996424213172304,2024-10-10 14h07.10.875101 +0530,
98,0,98,[0.225],[0.26],[1],[0],[0],[1.4280800000001364],['target'],98,0,98,0,223.4973480000001,,5,223.48446790000003,223.4973480000001,223.4973480000001,0.019687599999997474,224.9129172999999,[0.225],[0.26],[1],[0],[0],[1.4280800000001364],['target'],887105,001,2024-10-10_14h07.04.051,visual search,2024.2.1post4,59.996424213172304,2024-10-10 14h07.10.875101 +0530,
99,0,99,[0.185],[-0.475],[1],[0],[0],[3.0204444000000876],['target'],99,0,99,0,224.94083119999982,,5,224.9260443999999,224.94083119999982,224.94083119999982,0.012962599999809754,227.94688550000023,[0.185],[-0.475],[1],[0],[0],[3.0204444000000876],['target'],887105,001,2024-10-10_14h07.04.051,visual search,2024.2.1post4,59.996424213172304,2024-10-10 14h07.10.875101 +0530,
100,0,100,[-0.1],[-0.095],[1],[0],[0],[1.5335384999998496],['target'],100,0,100,0,227.97443399999997,,5,227.9635283,227.97443399999997,227.97443399999997,0.01645939999980328,229.49749150000002,[-0.1],[-0.095],[1],[0],[0],[1.5335384999998496],['target'],887105,001,2024-10-10_14h07.04.051,visual search,2024.2.1post4,59.996424213172304,2024-10-10 14h07.10.875101 +0530,
101,0,101,[0.48],[-0.11166666666666666],[1],[0],[0],[1.9213994000001549],['target'],101,0,101,0,229.54339589999995,,10,229.52541469999983,229.54339589999995,229.54339589999995,0.0277765000000727,231.44719710000004,[0.48],[-0.11166666666666666],[1],[0],[0],[1.9213994000001549],['target'],887105,001,2024-10-10_14h07.04.051,visual search,2024.2.1post4,59.996424213172304,2024-10-10 14h07.10.875101 +0530,
102,0,102,[0.21666666666666667],[0.31],[1],[0],[0],[2.0242984999999862],['target'],102,0,102,0,231.48941790000003,,10,231.4749717000002,231.48941790000003,231.48941790000003,0.027532499999779247,233.49983540000017,[0.21666666666666667],[0.31],[1],[0],[0],[2.0242984999999862],['target'],887105,001,2024-10-10_14h07.04.051,visual search,2024.2.1post4,59.996424213172304,2024-10-10 14h07.10.875101 +0530,
103,0,103,[-0.48333333333333334],[0.42333333333333334],[1],[0],[0],[2.7256521000003886],['target'],103,0,103,0,233.54333010000005,,5,233.52344030000017,233.54333010000005,233.54333010000005,0.02334919999975682,236.2496394000002,[-0.48333333333333334],[0.42333333333333334],[1],[0],[0],[2.7256521000003886],['target'],887105,001,2024-10-10_14h07.04.051,visual search,2024.2.1post4,59.996424213172304,2024-10-10 14h07.10.875101 +0530,
104,0,104,[-0.4766666666666667],[-0.38],[1],[0],[0],[2.28304130000015],['target'],104,0,104,0,236.2749381000001,,5,236.2647030999999,236.2749381000001,236.2749381000001,0.01489690000016708,238.5481367,[-0.4766666666666667],[-0.38],[1],[0],[0],[2.28304130000015],['target'],887105,001,2024-10-10_14h07.04.051,visual search,2024.2.1post4,59.996424213172304,2024-10-10 14h07.10.875101 +0530,
105,0,105,[0.275],[0.08],[1],[0],[0],[1.8347625000001244],['target'],105,0,105,0,238.5747748000001,,5,238.5624937,238.5747748000001,238.5747748000001,0.014177999999901658,240.3977053000001,[0.275],[0.08],[1],[0],[0],[1.8347625000001244],['target'],887105,001,2024-10-10_14h07.04.051,visual search,2024.2.1post4,59.996424213172304,2024-10-10 14h07.10.875101 +0530,
106,0,106,[0.33],[0.16333333333333333],[1],[0],[0],[1.3370858999996926],['target'],106,0,106,0,240.42488350000008,,5,240.41177129999983,240.42488350000008,240.42488350000008,0.013922699999966426,241.74944029999983,[0.33],[0.16333333333333333],[1],[0],[0],[1.3370858999996926],['target'],887105,001,2024-10-10_14h07.04.051,visual search,2024.2.1post4,59.996424213172304,2024-10-10 14h07.10.875101 +0530,
107,0,107,[0.12333333333333334],[0.03666666666666667],[1],[0],[0],[1.3935043999999834],['target'],107,0,107,0,241.78619749999984,,5,241.77147780000018,241.78619749999984,241.78619749999984,0.021874600000046485,243.16537870000025,[0.12333333333333334],[0.03666666666666667],[1],[0],[0],[1.3935043999999834],['target'],887105,001,2024-10-10_14h07.04.051,visual search,2024.2.1post4,59.996424213172304,2024-10-10 14h07.10.875101 +0530,
108,0,108,[0.285],[-0.15833333333333333],[1],[0],[0],[2.189557100000002],['target'],108,0,108,0,243.2060752,,10,243.19120690000022,243.2060752,243.2060752,0.025666699999874254,245.38117249999982,[0.285],[-0.15833333333333333],[1],[0],[0],[2.189557100000002],['target'],887105,001,2024-10-10_14h07.04.051,visual search,2024.2.1post4,59.996424213172304,2024-10-10 14h07.10.875101 +0530,
109,0,109,[-0.33666666666666667],[0.02],[1],[0],[0],[1.947750299999825],['target'],109,0,109,0,245.41481550000003,,5,245.39996059999999,245.41481550000003,245.41481550000003,0.018637399999988702,247.34809329999985,[-0.33666666666666667],[0.02],[1],[0],[0],[1.947750299999825],['target'],887105,001,2024-10-10_14h07.04.051,visual search,2024.2.1post4,59.996424213172304,2024-10-10 14h07.10.875101 +0530,
110,0,110,[-0.2633333333333333],[0.415],[1],[0],[0],[2.555942999999843],['target'],110,0,110,0,247.3932502,,10,247.37621590000003,247.3932502,247.3932502,0.02791449999995166,249.93270770000004,[-0.2633333333333333],[0.415],[1],[0],[0],[2.555942999999843],['target'],887105,001,2024-10-10_14h07.04.051,visual search,2024.2.1post4,59.996424213172304,2024-10-10 14h07.10.875101 +0530,
111,0,111,[-0.10833333333333334],[0.16333333333333333],[1],[0],[0],[1.1725656000003255],['target'],111,0,111,0,249.9730605000002,,10,249.95860160000007,249.9730605000002,249.9730605000002,0.025681099999928847,251.1315873000001,[-0.10833333333333334],[0.16333333333333333],[1],[0],[0],[1.1725656000003255],['target'],887105,001,2024-10-10_14h07.04.051,visual search,2024.2.1post4,59.996424213172304,2024-10-10 14h07.10.875101 +0530,
112,0,112,[-0.22],[-0.33166666666666667],[1],[0],[0],[1.6421494000001076],['target'],112,0,112,0,251.1742759000001,,10,251.15945399999987,251.1742759000001,251.1742759000001,0.02763310000000274,252.8020543,[-0.22],[-0.33166666666666667],[1],[0],[0],[1.6421494000001076],['target'],887105,001,2024-10-10_14h07.04.051,visual search,2024.2.1post4,59.996424213172304,2024-10-10 14h07.10.875101 +0530,
113,0,113,[0.38166666666666665],[-0.08666666666666667],[1],[0],[0],[2.5261491000001115],['target'],113,0,113,0,252.83499169999982,,5,252.82242150000025,252.83499169999982,252.83499169999982,0.020126400000208378,255.34896360000016,[0.38166666666666665],[-0.08666666666666667],[1],[0],[0],[2.5261491000001115],['target'],887105,001,2024-10-10_14h07.04.051,visual search,2024.2.1post4,59.996424213172304,2024-10-10 14h07.10.875101 +0530,
114,0,114,[0.3016666666666667],[0.06],[1],[0],[0],[1.4512141999998676],['target'],114,0,114,0,255.3755877000001,,5,255.36448570000016,255.3755877000001,255.3755877000001,0.01535809999995763,256.81617100000017,[0.3016666666666667],[0.06],[1],[0],[0],[1.4512141999998676],['target'],887105,001,2024-10-10_14h07.04.051,visual search,2024.2.1post4,59.996424213172304,2024-10-10 14h07.10.875101 +0530,
115,0,115,[0.08833333333333333],[0.205],[1],[0],[0],[1.595830400000068],['target'],115,0,115,0,256.8709458000001,,10,256.85141769999996,256.8709458000001,256.8709458000001,0.035085999999864725,258.44762509999987,[0.08833333333333333],[0.205],[1],[0],[0],[1.595830400000068],['target'],887105,001,2024-10-10_14h07.04.051,visual search,2024.2.1post4,59.996424213172304,2024-10-10 14h07.10.875101 +0530,
116,0,116,[-0.03],[0.31333333333333335],[1],[0],[0],[1.9379316999998082],['target'],116,0,116,0,258.47560150000004,,5,258.4608117,258.47560150000004,258.47560150000004,0.013018799999827024,260.39916130000006,[-0.03],[0.31333333333333335],[1],[0],[0],[1.9379316999998082],['target'],887105,001,2024-10-10_14h07.04.051,visual search,2024.2.1post4,59.996424213172304,2024-10-10 14h07.10.875101 +0530,
117,0,117,[-0.3616666666666667],[0.13833333333333334],[1],[0],[0],[2.235935100000006],['target'],117,0,117,0,260.42567889999987,,5,260.41211529999987,260.42567889999987,260.42567889999987,0.012825900000279944,262.64843339999993,[-0.3616666666666667],[0.13833333333333334],[1],[0],[0],[2.235935100000006],['target'],887105,001,2024-10-10_14h07.04.051,visual search,2024.2.1post4,59.996424213172304,2024-10-10 14h07.10.875101 +0530,
118,0,118,[-0.03666666666666667],[-0.15],[1],[0],[0],[2.0889305999999124],['target'],118,0,118,0,262.6903871000002,,10,262.6759751000002,262.6903871000002,262.6903871000002,0.027377200000046287,264.7653726000001,[-0.03666666666666667],[-0.15],[1],[0],[0],[2.0889305999999124],['target'],887105,001,2024-10-10_14h07.04.051,visual search,2024.2.1post4,59.996424213172304,2024-10-10 14h07.10.875101 +0530,
119,0,119,[0.11666666666666667],[0.16666666666666666],[1],[0],[0],[1.6544346000000587],['target'],119,0,119,0,264.80783529999985,,10,264.7934143,264.80783529999985,264.80783529999985,0.02780860000029861,266.44826880000005,[0.11666666666666667],[0.16666666666666666],[1],[0],[0],[1.6544346000000587],['target'],887105,001,2024-10-10_14h07.04.051,visual search,2024.2.1post4,59.996424213172304,2024-10-10 14h07.10.875101 +0530,
120,0,120,[-0.37166666666666665],[0.4683333333333333],[1],[0],[0],[2.254610599999978],['target'],120,0,120,0,266.47591669999997,,5,266.46121629999993,266.47591669999997,266.47591669999997,0.012773599999945873,268.71622890000003,[-0.37166666666666665],[0.4683333333333333],[1],[0],[0],[2.254610599999978],['target'],887105,001,2024-10-10_14h07.04.051,visual search,2024.2.1post4,59.996424213172304,2024-10-10 14h07.10.875101 +0530,
121,0,121,[0.42],[0.07833333333333334],[1],[0],[0],[2.289746599999944],['target'],121,0,121,0,268.7562154999998,,10,268.7417947000001,268.7562154999998,268.7562154999998,0.025406300000213378,271.03195340000025,[0.42],[0.07833333333333334],[1],[0],[0],[2.289746599999944],['target'],887105,001,2024-10-10_14h07.04.051,visual search,2024.2.1post4,59.996424213172304,2024-10-10 14h07.10.875101 +0530,
122,0,122,[-0.32166666666666666],[0.36],[1],[0],[0],[1.850970700000289],['target'],122,0,122,0,271.0594927999998,,5,271.0481127999999,271.0594927999998,271.0594927999998,0.015939399999751913,272.89946380000015,[-0.32166666666666666],[0.36],[1],[0],[0],[1.850970700000289],['target'],887105,001,2024-10-10_14h07.04.051,visual search,2024.2.1post4,59.996424213172304,2024-10-10 14h07.10.875101 +0530,
123,0,123,[-0.255],[-0.03333333333333333],[1],[0],[0],[1.62339750000001],['target'],123,0,123,0,272.93925509999985,,10,272.92469940000024,272.93925509999985,272.93925509999985,0.025078299999677256,274.54848240000024,[-0.255],[-0.03333333333333333],[1],[0],[0],[1.62339750000001],['target'],887105,001,2024-10-10_14h07.04.051,visual search,2024.2.1post4,59.996424213172304,2024-10-10 14h07.10.875101 +0530,
124,0,124,[-0.37],[0.32666666666666666],[1],[0],[0],[1.904216699999779],['target'],124,0,124,0,274.57638109999994,,5,274.56226230000016,274.57638109999994,274.57638109999994,0.013610699999844655,276.4669021000002,[-0.37],[0.32666666666666666],[1],[0],[0],[1.904216699999779],['target'],887105,001,2024-10-10_14h07.04.051,visual search,2024.2.1post4,59.996424213172304,2024-10-10 14h07.10.875101 +0530,
125,0,125,[-0.27],[-0.095],[1],[0],[0],[1.9157986999998684],['target'],125,0,125,0,276.4973155,,5,276.48371239999983,276.4973155,276.4973155,0.016693000000032043,278.39989919999994,[-0.27],[-0.095],[1],[0],[0],[1.9157986999998684],['target'],887105,001,2024-10-10_14h07.04.051,visual search,2024.2.1post4,59.996424213172304,2024-10-10 14h07.10.875101 +0530,
126,0,126,[0.24833333333333332],[0.38166666666666665],[1],[0],[0],[1.9839381000001595],['target'],126,0,126,0,278.42647150000016,,5,278.41467480000006,278.42647150000016,278.42647150000016,0.014618000000155007,280.3989995999998,[0.24833333333333332],[0.38166666666666665],[1],[0],[0],[1.9839381000001595],['target'],887105,001,2024-10-10_14h07.04.051,visual search,2024.2.1post4,59.996424213172304,2024-10-10 14h07.10.875101 +0530,
127,0,127,[0.08666666666666667],[0.20666666666666667],[1],[0],[0],[1.673629500000061],['target'],127,0,127,0,280.4394377000001,,10,280.4247505999999,280.4394377000001,280.4394377000001,0.025627500000155123,282.0987781000001,[0.08666666666666667],[0.20666666666666667],[1],[0],[0],[1.673629500000061],['target'],887105,001,2024-10-10_14h07.04.051,visual search,2024.2.1post4,59.996424213172304,2024-10-10 14h07.10.875101 +0530,
128,0,128,[-0.44],[0.20833333333333334],[1],[0],[0],[2.1416493000001537],['target'],128,0,128,0,282.1385816999998,,10,282.12416689999986,282.1385816999998,282.1385816999998,0.025211200000285316,284.2662413999999,[-0.44],[0.20833333333333334],[1],[0],[0],[2.1416493000001537],['target'],887105,001,2024-10-10_14h07.04.051,visual search,2024.2.1post4,59.996424213172304,2024-10-10 14h07.10.875101 +0530,
129,0,129,[0.15666666666666668],[0.10833333333333334],[1],[0],[0],[4.939545299999736],['target'],129,0,129,0,284.30738540000016,,10,284.29300309999985,284.30738540000016,284.30738540000016,0.02656829999978072,289.2330734999998,[0.15666666666666668],[0.10833333333333334],[1],[0],[0],[4.939545299999736],['target'],887105,001,2024-10-10_14h07.04.051,visual search,2024.2.1post4,59.996424213172304,2024-10-10 14h07.10.875101 +0530,
130,0,130,[-0.13166666666666665],[0.485],[1],[0],[0],[3.7075684999999794],['target'],130,0,130,0,289.2729474999999,,10,289.2584390999998,289.2729474999999,289.2729474999999,0.02520649999996749,292.96641680000016,[-0.13166666666666665],[0.485],[1],[0],[0],[3.7075684999999794],['target'],887105,001,2024-10-10_14h07.04.051,visual search,2024.2.1post4,59.996424213172304,2024-10-10 14h07.10.875101 +0530,
131,0,131,[-0.255],[-0.24833333333333332],[1],[0],[0],[4.0703953000002],['target'],131,0,131,0,293.01521549999984,,10,292.99622639999984,293.01521549999984,293.01521549999984,0.0296662999999171,297.06702710000013,[-0.255],[-0.24833333333333332],[1],[0],[0],[4.0703953000002],['target'],887105,001,2024-10-10_14h07.04.051,visual search,2024.2.1post4,59.996424213172304,2024-10-10 14h07.10.875101 +0530,
132,0,132,[0.18833333333333332],[0.01],[1],[0],[0],[2.1178187000000435],['target'],132,0,132,0,297.09404199999994,,5,297.0820787,297.09404199999994,297.09404199999994,0.014852900000278169,299.2003473000002,[0.18833333333333332],[0.01],[1],[0],[0],[2.1178187000000435],['target'],887105,001,2024-10-10_14h07.04.051,visual search,2024.2.1post4,59.996424213172304,2024-10-10 14h07.10.875101 +0530,
133,0,133,[-0.41833333333333333],[0.39],[1],[0],[0],[2.5530719000003046],['target'],133,0,133,0,299.2272977,,5,299.2132385000002,299.2272977,299.2272977,0.012754400000176247,301.76673080000023,[-0.41833333333333333],[0.39],[1],[0],[0],[2.5530719000003046],['target'],887105,001,2024-10-10_14h07.04.051,visual search,2024.2.1post4,59.996424213172304,2024-10-10 14h07.10.875101 +0530,
134,0,134,[-0.04833333333333333],[0.18166666666666667],[1],[0],[0],[2.405067500000314],['target'],134,0,134,0,301.8089384000002,,10,301.7946223000001,301.8089384000002,301.8089384000002,0.02770490000011705,304.2000771999999,[-0.04833333333333333],[0.18166666666666667],[1],[0],[0],[2.405067500000314],['target'],887105,001,2024-10-10_14h07.04.051,visual search,2024.2.1post4,59.996424213172304,2024-10-10 14h07.10.875101 +0530,
135,0,135,[0.4766666666666667],[-0.32166666666666666],[1],[0],[0],[3.358416000000034],['target'],135,0,135,0,304.2459454000002,,10,304.22694190000016,304.2459454000002,304.2459454000002,0.026714999999967404,307.58582090000004,[0.4766666666666667],[-0.32166666666666666],[1],[0],[0],[3.358416000000034],['target'],887105,001,2024-10-10_14h07.04.051,visual search,2024.2.1post4,59.996424213172304,2024-10-10 14h07.10.875101 +0530,
136,0,136,[0.3383333333333333],[-0.025],[1],[0],[0],[1.8119339999998374],['target'],136,0,136,0,307.61893369999984,,5,307.6051359999999,307.61893369999984,307.61893369999984,0.019126800000321964,309.4174442000001,[0.3383333333333333],[-0.025],[1],[0],[0],[1.8119339999998374],['target'],887105,001,2024-10-10_14h07.04.051,visual search,2024.2.1post4,59.996424213172304,2024-10-10 14h07.10.875101 +0530,
137,0,137,[-0.49],[-0.43],[1],[0],[0],[4.472148500000003],['target'],137,0,137,0,309.45939740000017,,10,309.445031,309.45939740000017,309.45939740000017,0.027428899999904388,313.91759479999996,[-0.49],[-0.43],[1],[0],[0],[4.472148500000003],['target'],887105,001,2024-10-10_14h07.04.051,visual search,2024.2.1post4,59.996424213172304,2024-10-10 14h07.10.875101 +0530,
138,0,138,[-0.34],[-0.34],[1],[0],[0],[3.0421324999997523],['target'],138,0,138,0,313.95757519999984,,10,313.94316060000006,313.95757519999984,313.95757519999984,0.025389999999788415,316.98572360000003,[-0.34],[-0.34],[1],[0],[0],[3.0421324999997523],['target'],887105,001,2024-10-10_14h07.04.051,visual search,2024.2.1post4,59.996424213172304,2024-10-10 14h07.10.875101 +0530,
139,0,139,[-0.4],[0.26666666666666666],[1],[0],[0],[2.08803510000007],['target'],139,0,139,0,317.02631469999983,,10,317.0118335999998,317.02631469999983,317.02631469999983,0.025894400000197493,319.10024690000023,[-0.4],[0.26666666666666666],[1],[0],[0],[2.08803510000007],['target'],887105,001,2024-10-10_14h07.04.051,visual search,2024.2.1post4,59.996424213172304,2024-10-10 14h07.10.875101 +0530,
140,0,140,[0.165],[-0.04],[1],[0],[0],[1.653748700000051],['target'],140,0,140,0,319.1281419999998,,5,319.11370310000007,319.1281419999998,319.1281419999998,0.013280300000133138,320.76783009999986,[0.165],[-0.04],[1],[0],[0],[1.653748700000051],['target'],887105,001,2024-10-10_14h07.04.051,visual search,2024.2.1post4,59.996424213172304,2024-10-10 14h07.10.875101 +0530,
141,0,141,[-0.49333333333333335],[0.145],[1],[0],[0],[2.4571860000000925],['target'],141,0,141,0,320.8081853000001,,10,320.7926880000002,320.8081853000001,320.8081853000001,0.024723200000153156,323.2502357000001,[-0.49333333333333335],[0.145],[1],[0],[0],[2.4571860000000925],['target'],887105,001,2024-10-10_14h07.04.051,visual search,2024.2.1post4,59.996424213172304,2024-10-10 14h07.10.875101 +0530,
142,0,142,[0.22333333333333333],[-0.07],[1],[0],[0],[1.8041070999997828],['target'],142,0,142,0,323.2783372000001,,5,323.26347150000015,323.2783372000001,323.2783372000001,0.013085300000057032,325.0679551999999,[0.22333333333333333],[-0.07],[1],[0],[0],[1.8041070999997828],['target'],887105,001,2024-10-10_14h07.04.051,visual search,2024.2.1post4,59.996424213172304,2024-10-10 14h07.10.875101 +0530,
143,0,143,[-0.38166666666666665],[-0.11833333333333333],[1],[0],[0],[1.772416699999667],['target'],143,0,143,0,325.1101799999999,,10,325.09577030000014,325.1101799999999,325.1101799999999,0.02764389999993,326.86859070000014,[-0.38166666666666665],[-0.11833333333333333],[1],[0],[0],[1.772416699999667],['target'],887105,001,2024-10-10_14h07.04.051,visual search,2024.2.1post4,59.996424213172304,2024-10-10 14h07.10.875101 +0530,
144,0,144,[0.37],[0.07333333333333333],[1],[0],[0],[3.038498100000197],['target'],144,0,144,0,326.9101284000001,,10,326.8957349,326.9101284000001,326.9101284000001,0.026948600000196166,329.93463270000007,[0.37],[0.07333333333333333],[1],[0],[0],[3.038498100000197],['target'],887105,001,2024-10-10_14h07.04.051,visual search,2024.2.1post4,59.996424213172304,2024-10-10 14h07.10.875101 +0530,
145,0,145,[-0.4716666666666667],[0.18833333333333332],[1],[0],[0],[2.2246665000002395],['target'],145,0,145,0,329.9739830000001,,10,329.9595830999999,329.9739830000001,329.9739830000001,0.02479410000023563,332.18463750000024,[-0.4716666666666667],[0.18833333333333332],[1],[0],[0],[2.2246665000002395],['target'],887105,001,2024-10-10_14h07.04.051,visual search,2024.2.1post4,59.996424213172304,2024-10-10 14h07.10.875101 +0530,
146,0,146,[0.09],[-0.4683333333333333],[1],[0],[0],[2.537121300000308],['target'],146,0,146,0,332.21199230000025,,5,332.19813610000006,332.21199230000025,332.21199230000025,0.013347900000098889,334.7356612000001,[0.09],[-0.4683333333333333],[1],[0],[0],[2.537121300000308],['target'],887105,001,2024-10-10_14h07.04.051,visual search,2024.2.1post4,59.996424213172304,2024-10-10 14h07.10.875101 +0530,
147,0,147,[0.43333333333333335],[-0.20333333333333334],[1],[0],[0],[3.3514165000001412],['target'],147,0,147,0,334.76214349999987,,5,334.74969179999994,334.76214349999987,334.76214349999987,0.013860600000043632,338.10147600000005,[0.43333333333333335],[-0.20333333333333334],[1],[0],[0],[3.3514165000001412],['target'],887105,001,2024-10-10_14h07.04.051,visual search,2024.2.1post4,59.996424213172304,2024-10-10 14h07.10.875101 +0530,
148,0,148,[0.20666666666666667],[-0.4066666666666667],[1],[0],[0],[3.0250083999999333],['target'],148,0,148,0,338.1407138000002,,10,338.1263188999999,338.1407138000002,338.1407138000002,0.024708999999802472,341.15173770000024,[0.20666666666666667],[-0.4066666666666667],[1],[0],[0],[3.0250083999999333],['target'],887105,001,2024-10-10_14h07.04.051,visual search,2024.2.1post4,59.996424213172304,2024-10-10 14h07.10.875101 +0530,
149,0,149,[-0.3433333333333333],[-0.465],[1],[0],[0],[2.83875610000041],['target'],149,0,149,0,341.19401410000023,,10,341.1796864999999,341.19401410000023,341.19401410000023,0.02772580000009839,344.0188449999998,[-0.3433333333333333],[-0.465],[1],[0],[0],[2.83875610000041],['target'],887105,001,2024-10-10_14h07.04.051,visual search,2024.2.1post4,59.996424213172304,2024-10-10 14h07.10.875101 +0530,
150,0,150,[-0.4583333333333333],[-0.23333333333333334],[1],[0],[0],[2.1204720999999154],['target'],150,0,150,0,344.04585329999986,,5,344.03168389999996,344.04585329999986,344.04585329999986,0.012668399999711255,346.15256190000014,[-0.4583333333333333],[-0.23333333333333334],[1],[0],[0],[2.1204720999999154],['target'],887105,001,2024-10-10_14h07.04.051,visual search,2024.2.1post4,59.996424213172304,2024-10-10 14h07.10.875101 +0530,
151,0,151,[-0.4683333333333333],[-0.11833333333333333],[1],[0],[0],[1.468544700000166],['target'],151,0,151,0,346.1792779,,5,346.1657364,346.1792779,346.1792779,0.013043100000231789,347.6346623000002,[-0.4683333333333333],[-0.11833333333333333],[1],[0],[0],[1.468544700000166],['target'],887105,001,2024-10-10_14h07.04.051,visual search,2024.2.1post4,59.996424213172304,2024-10-10 14h07.10.875101 +0530,
152,0,152,[-0.285],[-0.09166666666666666],[1],[0],[0],[1.4547473000002356],['target'],152,0,152,0,347.66270139999983,,5,347.6475302000001,347.66270139999983,347.66270139999983,0.012732299999697716,349.10266720000004,[-0.285],[-0.09166666666666666],[1],[0],[0],[1.4547473000002356],['target'],887105,001,2024-10-10_14h07.04.051,visual search,2024.2.1post4,59.996424213172304,2024-10-10 14h07.10.875101 +0530,
153,0,153,[0.445],[0.35333333333333333],[1],[0],[0],[2.218013300000166],['target'],153,0,153,0,349.1294819000002,,5,349.11841690000006,349.1294819000002,349.1294819000002,0.015569000000141386,351.3368591000001,[0.445],[0.35333333333333333],[1],[0],[0],[2.218013300000166],['target'],887105,001,2024-10-10_14h07.04.051,visual search,2024.2.1post4,59.996424213172304,2024-10-10 14h07.10.875101 +0530,
154,0,154,[-0.09666666666666666],[-0.46],[1],[0],[0],[3.002016299999923],['target'],154,0,154,0,351.3629013000002,,5,351.35096580000004,351.3629013000002,351.3629013000002,0.013945400000011432,354.3533589000001,[-0.09666666666666666],[-0.46],[1],[0],[0],[3.002016299999923],['target'],887105,001,2024-10-10_14h07.04.051,visual search,2024.2.1post4,59.996424213172304,2024-10-10 14h07.10.875101 +0530,
155,0,155,[0.4116666666666667],[-0.38],[1],[0],[0],[2.5897946000000047],['target'],155,0,155,0,354.3931298,,10,354.37874750000015,354.3931298,354.3931298,0.0252399000000878,356.9689313000001,[0.4116666666666667],[-0.38],[1],[0],[0],[2.5897946000000047],['target'],887105,001,2024-10-10_14h07.04.051,visual search,2024.2.1post4,59.996424213172304,2024-10-10 14h07.10.875101 +0530,
156,0,156,[0.22166666666666668],[-0.35833333333333334],[1],[0],[0],[3.124781299999995],['target'],156,0,156,0,357.0087731000001,,10,356.99423790000014,357.0087731000001,357.0087731000001,0.025150399999802175,360.1194251999998,[0.22166666666666668],[-0.35833333333333334],[1],[0],[0],[3.124781299999995],['target'],887105,001,2024-10-10_14h07.04.051,visual search,2024.2.1post4,59.996424213172304,2024-10-10 14h07.10.875101 +0530,
157,0,157,[0.18333333333333332],[-0.19166666666666668],[1],[0],[0],[4.153342099999918],['target'],157,0,157,0,360.1465867999998,,5,360.13489970000023,360.1465867999998,360.1465867999998,0.015235500000017055,364.2886439000001,[0.18333333333333332],[-0.19166666666666668],[1],[0],[0],[4.153342099999918],['target'],887105,001,2024-10-10_14h07.04.051,visual search,2024.2.1post4,59.996424213172304,2024-10-10 14h07.10.875101 +0530,
158,0,158,[0.31666666666666665],[-0.25],[1],[0],[0],[1.7325934999998935],['target'],158,0,158,0,364.3300786000002,,5,364.3033578000002,364.3300786000002,364.3300786000002,0.014561299999968469,366.0363636999998,[0.31666666666666665],[-0.25],[1],[0],[0],[1.7325934999998935],['target'],887105,001,2024-10-10_14h07.04.051,visual search,2024.2.1post4,59.996424213172304,2024-10-10 14h07.10.875101 +0530,
159,0,159,[-0.013333333333333334],[-0.44166666666666665],[1],[0],[0],[2.26956730000029],['target'],159,0,159,0,366.0634225000001,,5,366.0497163000002,366.0634225000001,366.0634225000001,0.013218000000051688,368.3196688999999,[-0.013333333333333334],[-0.44166666666666665],[1],[0],[0],[2.26956730000029],['target'],887105,001,2024-10-10_14h07.04.051,visual search,2024.2.1post4,59.996424213172304,2024-10-10 14h07.10.875101 +0530,
160,0,160,[-0.42],[-0.31166666666666665],[1],[0],[0],[1.7241997999999512],['target'],160,0,160,0,368.3601691000001,,10,368.3450786000001,368.3601691000001,368.3601691000001,0.025269800000387477,370.0696733000002,[-0.42],[-0.31166666666666665],[1],[0],[0],[1.7241997999999512],['target'],887105,001,2024-10-10_14h07.04.051,visual search,2024.2.1post4,59.996424213172304,2024-10-10 14h07.10.875101 +0530,
161,0,161,[0.16],[-0.41333333333333333],[1],[0],[0],[2.235129700000016],['target'],161,0,161,0,370.09700110000017,,5,370.08503799999994,370.09700110000017,370.09700110000017,0.015139600000111386,372.32060639999986,[0.16],[-0.41333333333333333],[1],[0],[0],[2.235129700000016],['target'],887105,001,2024-10-10_14h07.04.051,visual search,2024.2.1post4,59.996424213172304,2024-10-10 14h07.10.875101 +0530,
162,0,162,[0.3016666666666667],[0.18833333333333332],[1],[0],[0],[1.4501758999999765],['target'],162,0,162,0,372.3470424999998,,5,372.3360237999998,372.3470424999998,372.3470424999998,0.015225999999984197,373.78661149999994,[0.3016666666666667],[0.18833333333333332],[1],[0],[0],[1.4501758999999765],['target'],887105,001,2024-10-10_14h07.04.051,visual search,2024.2.1post4,59.996424213172304,2024-10-10 14h07.10.875101 +0530,
163,0,163,[0.11833333333333333],[-0.021666666666666667],[1],[0],[0],[1.947209500000099],['target'],163,0,163,0,373.84029540000006,,10,373.82227130000024,373.84029540000006,373.84029540000006,0.03550200000017867,375.76987220000024,[0.11833333333333333],[-0.021666666666666667],[1],[0],[0],[1.947209500000099],['target'],887105,001,2024-10-10_14h07.04.051,visual search,2024.2.1post4,59.996424213172304,2024-10-10 14h07.10.875101 +0530,
164,0,164,[-0.37833333333333335],[0.10833333333333334],[1],[0],[0],[1.8550688000000264],['target'],164,0,164,0,375.8124908000002,,10,375.79797220000023,375.8124908000002,375.8124908000002,0.027878899999905116,377.6534457,[-0.37833333333333335],[0.10833333333333334],[1],[0],[0],[1.8550688000000264],['target'],887105,001,2024-10-10_14h07.04.051,visual search,2024.2.1post4,59.996424213172304,2024-10-10 14h07.10.875101 +0530,
165,0,165,[-0.056666666666666664],[0.16333333333333333],[1],[0],[0],[1.8385702999999012],['target'],165,0,165,0,377.6947505999999,,10,377.6812711,377.6947505999999,377.6947505999999,0.027604600000358914,379.5202241999998,[-0.056666666666666664],[0.16333333333333333],[1],[0],[0],[1.8385702999999012],['target'],887105,001,2024-10-10_14h07.04.051,visual search,2024.2.1post4,59.996424213172304,2024-10-10 14h07.10.875101 +0530,
166,0,166,[0.03833333333333333],[0.12],[1],[0],[0],[1.7674222000000555],['target'],166,0,166,0,379.54739859999995,,5,379.5358560000002,379.54739859999995,379.54739859999995,0.01540679999970962,381.3037190000002,[0.03833333333333333],[0.12],[1],[0],[0],[1.7674222000000555],['target'],887105,001,2024-10-10_14h07.04.051,visual search,2024.2.1post4,59.996424213172304,2024-10-10 14h07.10.875101 +0530,
167,0,167,[-0.19],[0.12833333333333333],[1],[0],[0],[1.5675431999998182],['target'],167,0,167,0,381.33080300000006,,5,381.3191175999998,381.33080300000006,381.33080300000006,0.015209499999855325,382.88705270000014,[-0.19],[0.12833333333333333],[1],[0],[0],[1.5675431999998182],['target'],887105,001,2024-10-10_14h07.04.051,visual search,2024.2.1post4,59.996424213172304,2024-10-10 14h07.10.875101 +0530,
168,0,168,[-0.15166666666666667],[-0.07833333333333334],[1],[0],[0],[1.3710436999999729],['target'],168,0,168,0,382.92978879999987,,10,382.91512290000014,382.92978879999987,382.92978879999987,0.027899000000161323,384.2865856000001,[-0.15166666666666667],[-0.07833333333333334],[1],[0],[0],[1.3710436999999729],['target'],887105,001,2024-10-10_14h07.04.051,visual search,2024.2.1post4,59.996424213172304,2024-10-10 14h07.10.875101 +0530,
169,0,169,[-0.15833333333333333],[-0.4066666666666667],[1],[0],[0],[2.0000233000000662],['target'],169,0,169,0,384.3161597999999,,5,384.3033656,384.3161597999999,384.3161597999999,0.01657240000031379,386.30378989999986,[-0.15833333333333333],[-0.4066666666666667],[1],[0],[0],[2.0000233000000662],['target'],887105,001,2024-10-10_14h07.04.051,visual search,2024.2.1post4,59.996424213172304,2024-10-10 14h07.10.875101 +0530,
170,0,170,[-0.15],[-0.22666666666666666],[1],[0],[0],[1.4494769000002634],['target'],170,0,170,0,386.3571970999999,,10,386.3372882000001,386.3571970999999,386.3571970999999,0.03333279999969818,387.7871889999999,[-0.15],[-0.22666666666666666],[1],[0],[0],[1.4494769000002634],['target'],887105,001,2024-10-10_14h07.04.051,visual search,2024.2.1post4,59.996424213172304,2024-10-10 14h07.10.875101 +0530,
171,0,171,[0.22833333333333333],[0.18833333333333332],[1],[0],[0],[1.9196842000001197],['target'],171,0,171,0,387.8146948000001,,5,387.8005473999999,387.8146948000001,387.8146948000001,0.013196699999753037,389.72063030000004,[0.22833333333333333],[0.18833333333333332],[1],[0],[0],[1.9196842000001197],['target'],887105,001,2024-10-10_14h07.04.051,visual search,2024.2.1post4,59.996424213172304,2024-10-10 14h07.10.875101 +0530,
172,0,172,[0.27166666666666667],[0.49833333333333335],[1],[0],[0],[4.023481100000026],['target'],172,0,172,0,389.7614188,,10,389.7467972000002,389.7614188,389.7614188,0.02599389999977575,393.77067109999984,[0.27166666666666667],[0.49833333333333335],[1],[0],[0],[4.023481100000026],['target'],887105,001,2024-10-10_14h07.04.051,visual search,2024.2.1post4,59.996424213172304,2024-10-10 14h07.10.875101 +0530,
173,0,173,[-0.15666666666666668],[0.44],[1],[0],[0],[1.4507674000001316],['target'],173,0,173,0,393.79796950000014,,5,393.78697850000003,393.79796950000014,393.79796950000014,0.016102999999930034,395.23815450000006,[-0.15666666666666668],[0.44],[1],[0],[0],[1.4507674000001316],['target'],887105,001,2024-10-10_14h07.04.051,visual search,2024.2.1post4,59.996424213172304,2024-10-10 14h07.10.875101 +0530,
174,0,174,[-0.013333333333333334],[0.3616666666666667],[1],[0],[0],[1.4571912999999768],['target'],174,0,174,0,395.27936509999995,,10,395.26432739999996,395.27936509999995,395.27936509999995,0.02601169999979902,396.7220264,[-0.013333333333333334],[0.3616666666666667],[1],[0],[0],[1.4571912999999768],['target'],887105,001,2024-10-10_14h07.04.051,visual search,2024.2.1post4,59.996424213172304,2024-10-10 14h07.10.875101 +0530,
175,0,175,[0.165],[0.395],[1],[0],[0],[1.1813606999999138],['target'],175,0,175,0,396.75565900000015,,5,396.7398870999998,396.75565900000015,396.75565900000015,0.017696200000045792,397.9216177999999,[0.165],[0.395],[1],[0],[0],[1.1813606999999138],['target'],887105,001,2024-10-10_14h07.04.051,visual search,2024.2.1post4,59.996424213172304,2024-10-10 14h07.10.875101 +0530,
176,0,176,[0.20166666666666666],[-0.16166666666666665],[1],[0],[0],[2.2026913999998214],['target'],176,0,176,0,397.9480937999999,,5,397.9350436000002,397.9480937999999,397.9480937999999,0.013299600000209466,400.1381448999998,[0.20166666666666666],[-0.16166666666666665],[1],[0],[0],[2.2026913999998214],['target'],887105,001,2024-10-10_14h07.04.051,visual search,2024.2.1post4,59.996424213172304,2024-10-10 14h07.10.875101 +0530,
177,0,177,[-0.38166666666666665],[-0.095],[1],[0],[0],[2.257242700000006],['target'],177,0,177,0,400.17831790000014,,10,400.16390579999984,400.17831790000014,400.17831790000014,0.02560089999997217,402.4215806999998,[-0.38166666666666665],[-0.095],[1],[0],[0],[2.257242700000006],['target'],887105,001,2024-10-10_14h07.04.051,visual search,2024.2.1post4,59.996424213172304,2024-10-10 14h07.10.875101 +0530,
178,0,178,[0.475],[-0.32166666666666666],[1],[0],[0],[2.7893623999998454],['target'],178,0,178,0,402.46266919999994,,10,402.4481489000002,402.46266919999994,402.46266919999994,0.026362499999777356,405.2379079,[0.475],[-0.32166666666666666],[1],[0],[0],[2.7893623999998454],['target'],887105,001,2024-10-10_14h07.04.051,visual search,2024.2.1post4,59.996424213172304,2024-10-10 14h07.10.875101 +0530,
179,0,179,[0.12],[-0.041666666666666664],[1],[0],[0],[1.5880020999998123],['target'],179,0,179,0,405.2807344999999,,10,405.2663058999999,405.2807344999999,405.2807344999999,0.0282004999999117,406.8547157999999,[0.12],[-0.041666666666666664],[1],[0],[0],[1.5880020999998123],['target'],887105,001,2024-10-10_14h07.04.051,visual search,2024.2.1post4,59.996424213172304,2024-10-10 14h07.10.875101 +0530,
180,0,180,[-0.31333333333333335],[-0.21666666666666667],[1],[0],[0],[2.773668499999985],['target'],180,0,180,0,406.89663959999984,,10,406.8822851000002,406.89663959999984,406.89663959999984,0.027321800000208896,409.6563506,[-0.31333333333333335],[-0.21666666666666667],[1],[0],[0],[2.773668499999985],['target'],887105,001,2024-10-10_14h07.04.051,visual search,2024.2.1post4,59.996424213172304,2024-10-10 14h07.10.875101 +0530,
181,0,181,[-0.345],[-0.19166666666666668],[1],[0],[0],[1.6511227000000872],['target'],181,0,181,0,409.6986927999999,,5,409.67126110000004,409.6986927999999,409.6986927999999,0.01468319999958112,411.3227634000002,[-0.345],[-0.19166666666666668],[1],[0],[0],[1.6511227000000872],['target'],887105,001,2024-10-10_14h07.04.051,visual search,2024.2.1post4,59.996424213172304,2024-10-10 14h07.10.875101 +0530,
182,0,182,[-0.19666666666666666],[0.37333333333333335],[1],[0],[0],[2.118020500000057],['target'],182,0,182,0,411.3486556999999,,5,411.33617690000005,411.3486556999999,411.3486556999999,0.013305200000104378,413.4546032999999,[-0.19666666666666666],[0.37333333333333335],[1],[0],[0],[2.118020500000057],['target'],887105,001,2024-10-10_14h07.04.051,visual search,2024.2.1post4,59.996424213172304,2024-10-10 14h07.10.875101 +0530,
183,0,183,[-0.2633333333333333],[0.20833333333333334],[1],[0],[0],[1.515195500000118],['target'],183,0,183,0,413.48682429999985,,5,413.47296900000015,413.48682429999985,413.48682429999985,0.018235799999729352,414.9885740000002,[-0.2633333333333333],[0.20833333333333334],[1],[0],[0],[1.515195500000118],['target'],887105,001,2024-10-10_14h07.04.051,visual search,2024.2.1post4,59.996424213172304,2024-10-10 14h07.10.875101 +0530,
184,0,184,[0.24333333333333335],[-0.15166666666666667],[1],[0],[0],[2.4258442999998806],['target'],184,0,184,0,415.0283713000001,,10,415.01391279999984,415.0283713000001,415.0283713000001,0.02520120000008319,417.44024590000004,[0.24333333333333335],[-0.15166666666666667],[1],[0],[0],[2.4258442999998806],['target'],887105,001,2024-10-10_14h07.04.051,visual search,2024.2.1post4,59.996424213172304,2024-10-10 14h07.10.875101 +0530,
185,0,185,[0.345],[-0.0016666666666666668],[1],[0],[0],[2.1303179999999884],['target'],185,0,185,0,417.47090300000013,,5,417.4584434000001,417.47090300000013,417.47090300000013,0.017959199999950215,419.58921190000024,[0.345],[-0.0016666666666666668],[1],[0],[0],[2.1303179999999884],['target'],887105,001,2024-10-10_14h07.04.051,visual search,2024.2.1post4,59.996424213172304,2024-10-10 14h07.10.875101 +0530,
186,0,186,[0.395],[0.4533333333333333],[1],[0],[0],[2.1159388999999464],['target'],186,0,186,0,419.6398031000001,,10,419.6224473,419.6398031000001,419.6398031000001,0.033101499999702355,421.7388059000002,[0.395],[0.4533333333333333],[1],[0],[0],[2.1159388999999464],['target'],887105,001,2024-10-10_14h07.04.051,visual search,2024.2.1post4,59.996424213172304,2024-10-10 14h07.10.875101 +0530,
187,0,187,[0.016666666666666666],[0.09166666666666666],[1],[0],[0],[1.9890269999996235],['target'],187,0,187,0,421.7804582000001,,10,421.76599109999984,421.7804582000001,421.7804582000001,0.02694889999975203,423.75545750000015,[0.016666666666666666],[0.09166666666666666],[1],[0],[0],[1.9890269999996235],['target'],887105,001,2024-10-10_14h07.04.051,visual search,2024.2.1post4,59.996424213172304,2024-10-10 14h07.10.875101 +0530,
188,0,188,[0.3883333333333333],[0.4583333333333333],[1],[0],[0],[4.269094699999641],['target'],188,0,188,0,423.8005820000001,,10,423.7861094000002,423.8005820000001,423.8005820000001,0.030484399999750167,428.0556127000002,[0.3883333333333333],[0.4583333333333333],[1],[0],[0],[4.269094699999641],['target'],887105,001,2024-10-10_14h07.04.051,visual search,2024.2.1post4,59.996424213172304,2024-10-10 14h07.10.875101 +0530,
189,0,189,[-0.35333333333333333],[-0.19833333333333333],[1],[0],[0],[2.2221582000001945],['target'],189,0,189,0,428.0978567999998,,10,428.0834698000001,428.0978567999998,428.0978567999998,0.027595300000029965,430.30604560000006,[-0.35333333333333333],[-0.19833333333333333],[1],[0],[0],[2.2221582000001945],['target'],887105,001,2024-10-10_14h07.04.051,visual search,2024.2.1post4,59.996424213172304,2024-10-10 14h07.10.875101 +0530,
190,0,190,[-0.3466666666666667],[0.22333333333333333],[1],[0],[0],[2.1382948999998916],['target'],190,0,190,0,430.34808039999984,,10,430.3336087,430.34808039999984,430.34808039999984,0.02735849999999118,432.47233889999984,[-0.3466666666666667],[0.22333333333333333],[1],[0],[0],[2.1382948999998916],['target'],887105,001,2024-10-10_14h07.04.051,visual search,2024.2.1post4,59.996424213172304,2024-10-10 14h07.10.875101 +0530,
191,0,191,[-0.15833333333333333],[0.13],[1],[0],[0],[1.8539613000002646],['target'],191,0,191,0,432.4995394,,5,432.4859822000001,432.4995394,432.4995394,0.013433699999950477,434.34034039999983,[-0.15833333333333333],[0.13],[1],[0],[0],[1.8539613000002646],['target'],887105,001,2024-10-10_14h07.04.051,visual search,2024.2.1post4,59.996424213172304,2024-10-10 14h07.10.875101 +0530,
192,0,192,[0.47333333333333333],[-0.45166666666666666],[1],[0],[0],[2.901515600000039],['target'],192,0,192,0,434.3662950999999,,5,434.3541582999999,434.3662950999999,434.3662950999999,0.01365780000014638,437.2560618,[0.47333333333333333],[-0.45166666666666666],[1],[0],[0],[2.901515600000039],['target'],887105,001,2024-10-10_14h07.04.051,visual search,2024.2.1post4,59.996424213172304,2024-10-10 14h07.10.875101 +0530,
193,0,193,[0.285],[-0.37833333333333335],[1],[0],[0],[2.804613299999801],['target'],193,0,193,0,437.2983848000001,,10,437.28395539999997,437.2983848000001,437.2983848000001,0.027683799999977055,440.08904770000004,[0.285],[-0.37833333333333335],[1],[0],[0],[2.804613299999801],['target'],887105,001,2024-10-10_14h07.04.051,visual search,2024.2.1post4,59.996424213172304,2024-10-10 14h07.10.875101 +0530,
194,0,194,[0.15666666666666668],[0.015],[1],[0],[0],[1.7199581999998372],['target'],194,0,194,0,440.1165459000001,,5,440.1026304999998,440.1165459000001,440.1165459000001,0.013450700000248617,441.8229613000001,[0.15666666666666668],[0.015],[1],[0],[0],[1.7199581999998372],['target'],887105,001,2024-10-10_14h07.04.051,visual search,2024.2.1post4,59.996424213172304,2024-10-10 14h07.10.875101 +0530,
195,0,195,[-0.45],[0.20833333333333334],[1],[0],[0],[1.770000600000003],['target'],195,0,195,0,441.85020629999985,,5,441.8358095000001,441.85020629999985,441.85020629999985,0.012709200000244891,443.6062129999998,[-0.45],[0.20833333333333334],[1],[0],[0],[1.770000600000003],['target'],887105,001,2024-10-10_14h07.04.051,visual search,2024.2.1post4,59.996424213172304,2024-10-10 14h07.10.875101 +0530,
196,0,196,[-0.455],[-0.455],[1],[0],[0],[2.2370992999999544],['target'],196,0,196,0,443.6334058,,5,443.6208650000001,443.6334058,443.6334058,0.014488599999822327,445.85841959999993,[-0.455],[-0.455],[1],[0],[0],[2.2370992999999544],['target'],887105,001,2024-10-10_14h07.04.051,visual search,2024.2.1post4,59.996424213172304,2024-10-10 14h07.10.875101 +0530,
197,0,197,[-0.4166666666666667],[0.36333333333333334],[1],[0],[0],[3.161297900000136],['target'],197,0,197,0,445.89370650000023,,5,445.87731199999985,445.89370650000023,445.89370650000023,0.018771300000025803,449.0389631999999,[-0.4166666666666667],[0.36333333333333334],[1],[0],[0],[3.161297900000136],['target'],887105,001,2024-10-10_14h07.04.051,visual search,2024.2.1post4,59.996424213172304,2024-10-10 14h07.10.875101 +0530,
198,0,198,[0.37666666666666665],[-0.03833333333333333],[1],[0],[0],[3.2256265999999414],['target'],198,0,198,0,449.07926299999986,,10,449.06482900000015,449.07926299999986,449.07926299999986,0.025731899999755115,452.2908863,[0.37666666666666665],[-0.03833333333333333],[1],[0],[0],[3.2256265999999414],['target'],887105,001,2024-10-10_14h07.04.051,visual search,2024.2.1post4,59.996424213172304,2024-10-10 14h07.10.875101 +0530,
199,0,199,[0.24666666666666667],[0.2966666666666667],[1],[0],[0],[1.805837700000211],['target'],199,0,199,0,452.3319730999999,,10,452.3174313000002,452.3319730999999,452.3319730999999,0.026345800000399322,454.1236686999998,[0.24666666666666667],[0.2966666666666667],[1],[0],[0],[1.805837700000211],['target'],887105,001,2024-10-10_14h07.04.051,visual search,2024.2.1post4,59.996424213172304,2024-10-10 14h07.10.875101 +0530,
